time_index,acc_x,acc_y,acc_z,gyro_x,gyro_y,gyro_z,is_zero_vel
0,0.331804215908051,0.778443872928619,9.87296390533447,0.00894264110794468,0.0062325470051393,-0.00366471849963217,1
1,0.350847184658051,0.792355000972748,9.87424278259277,0.00725511868024297,0.00399115911128919,-0.00358626525891439,1
2,0.351788103580475,0.772550284862518,9.87397003173828,0.00872918770627753,0.00282844482560391,-0.00278519550561994,1
3,0.356759071350098,0.790663838386536,9.85338878631592,0.00804277874125563,0.00310113041491038,-0.00325211318344078,1
4,0.349213063716888,0.803366363048553,9.87504196166992,0.00639526458729719,0.00316438491206329,-0.00264706404979512,1
5,0.357266545295715,0.799654066562653,9.87695789337158,0.00586799770261028,0.00261141384151926,-0.00174720103292025,1
6,0.344921261072159,0.778894007205963,9.86426162719727,0.00577501592986369,0.0039285756058953,-0.0035811243697281,1
7,0.353476047515869,0.789233386516571,9.87823486328125,0.00618091548965404,0.00599607026375923,-0.00333593097726452,1
8,0.348372668027878,0.781018614768982,9.88150024414062,0.00577076995643042,0.00434431013636753,-0.00406570135430456,1
9,0.340265393257141,0.795545220375061,9.85283756256104,0.00621891286871486,0.00327055349339498,-0.00368617567175872,1
10,0.357245236635208,0.791089236736298,9.86795043945312,0.00610536805937176,0.00393684544928811,-0.00301675424151043,1
11,0.338513165712357,0.79786628484726,9.87405776977539,0.0070698271668061,0.00397149047029705,-0.00250826264250858,1
12,0.342371791601181,0.786297142505646,9.85074901580811,0.00619991495940743,0.00315767941573658,-0.0034020910247786,1
13,0.347271174192429,0.771405816078186,9.86203193664551,0.00700053764493685,0.00372428462270505,-0.00463811766199537,1
14,0.366017669439316,0.794751286506653,9.85890579223633,0.00677210864347586,0.00490175136441315,-0.00314572145833807,1
15,0.354777842760086,0.7789626121521,9.87870502471924,0.00777881058325563,0.00667778540735987,-0.00358581871129802,1
16,0.338105380535126,0.779108941555023,9.87125110626221,0.00655485295517424,0.00443684406112612,-0.00373668964786859,1
17,0.342879831790924,0.780113995075226,9.87251758575439,0.00656871075551836,0.00308481387189579,-0.00384285822920028,1
18,0.350064188241959,0.775389671325684,9.86447811126709,0.00823231778857171,0.00175625317988327,-0.00327580647461543,1
19,0.349509835243225,0.774398922920227,9.87145042419434,0.00870728320631163,0.00559352410231804,-0.00108806112097021,1
20,0.354012340307236,0.789608716964722,9.8690013885498,0.00870951724476512,0.00378508011711317,-0.00358648892283407,1
21,0.321229249238968,0.794475913047791,9.8721809387207,0.00638855935104481,0.00120886980621623,-0.00237817814637987,1
22,0.358636379241943,0.774223864078522,9.86366939544678,0.00617622166823278,0.000654334193550359,-0.00359140614810068,1
23,0.331847250461578,0.799579203128815,9.87600803375244,0.006756014203935,-0.00014707152700832,-0.00201161677883391,1
24,0.350672572851181,0.775139510631561,9.88860321044922,0.00479290037649131,-0.000897628133179821,-0.00465778708321047,1
25,0.346631050109863,0.780607402324677,9.87977695465088,0.00478038299921929,-0.00361509865905235,-0.00378876771097022,1
26,0.338973999023438,0.781980931758881,9.86463832855225,0.00467935556714821,-0.00465286959786953,-0.00401652806134112,1
27,0.348705232143402,0.771223425865173,9.86200332641602,0.00410559779608801,-0.00286521257325516,-0.00487057105356455,1
28,0.346033811569214,0.77130925655365,9.88686180114746,0.00515521512041819,-0.00357777227175056,-0.00451205651567755,1
29,0.33955705165863,0.7873415350914,9.86119174957275,0.00328016454008286,-0.00281045210356338,-0.00471947671314864,1
30,0.391319453716278,0.752967178821564,9.86550140380859,0.00219836171763718,0.00546612149263082,-0.00289963341019579,1
31,0.328131467103958,0.897077679634094,9.86983013153076,-0.00478809420296156,-0.0116673763549617,-0.00640185799158974,1
32,0.316726803779602,0.69647353887558,9.95608997344971,-0.00501406602219804,-0.00514616193315787,-0.00445617798646172,1
33,0.358878314495087,0.828271925449371,9.86514186859131,-0.00859094415841855,-0.0220211672275932,-0.00543270662318009,1
34,0.377006888389587,0.797295093536377,9.90636253356934,-0.00598076020838317,-0.023951873713522,-0.00318170716249344,1
35,0.368954449892044,0.732062458992004,9.88192176818848,-0.00982585143573964,-0.0226970691898769,-0.00504982780235941,1
36,0.347730040550232,0.774878740310669,9.8927173614502,-0.00987055613164744,-0.0237019859794885,-0.0071671677852431,1
37,0.359220892190933,0.752572476863861,9.9435510635376,-0.0142621389378098,-0.0210533578427016,-0.00723444381168662,1
38,0.356666684150696,0.755737900733948,9.87847137451172,-0.00688889345876234,-0.0372187082087798,-0.00827825003529447,1
39,0.381007015705109,0.763741374015808,9.89533805847168,-0.00033728106218942,-0.0452741130383753,-0.0064320318147998,1
40,0.396114259958267,0.788316190242767,9.87632656097412,0.0119600671214371,-0.0556191914211126,-0.00531513846402609,1
41,0.405302911996841,0.69490385055542,9.87360858917236,0.0144280965259111,-0.0573201232810217,-0.00698053324799089,1
42,0.475524574518204,0.778879940509796,9.75468635559082,0.011100659836182,-0.0416845006228956,-0.00664481786574848,1
43,0.47360971570015,0.784244656562805,9.84588050842285,0.00582374189498778,-0.026056249511443,-0.00811955632309612,1
44,0.37883460521698,0.770130038261414,9.89705371856689,-0.00795147392775794,-0.0300638346570377,-0.00959295279692571,1
45,0.441437214612961,0.816738605499268,9.87012100219727,-0.0030730800985656,-0.0411661704121713,-0.0104691244731834,1
46,0.469700962305069,0.730703771114349,9.83767986297607,0.0105702632170656,-0.0366246152262319,-0.00921879218763449,1
47,0.457263767719269,0.787617683410645,9.86226463317871,0.00442656228275355,-0.0272918272603744,-0.0087469570244727,1
48,0.436718136072159,0.846042931079865,9.83317470550537,-0.0138372409485634,-0.0303083565375936,-0.00787927989582483,1
49,0.456076383590698,0.736424148082733,9.93690490722656,-0.0219695143860133,-0.0321625408346692,-0.00929489721727,1
50,0.49005401134491,0.788389682769775,9.82146739959717,-0.0194422764606636,-0.0311583813814926,-0.00806457192941034,1
51,0.439014285802841,0.797670245170593,9.87086009979248,-0.0297448815852032,-0.0286031781841025,-0.00785625811655785,1
52,0.47778382897377,0.730039775371552,9.83246231079102,-0.0287162772260522,-0.0347151432888073,-0.00753864598794418,1
53,0.472157984972,0.730387210845947,9.87897491455078,-0.0176282434782101,-0.0409857953437781,-0.00816582250525244,1
54,0.512782692909241,0.754105925559998,9.82469177246094,-0.012708054404586,-0.039071411122499,-0.006941418589629,1
55,0.5568687915802,0.616309285163879,9.83016586303711,-0.00117254899629283,-0.0323313748448072,-0.0063873291994866,1
56,0.52350914478302,0.810011684894562,9.84611701965332,-0.00963385624649634,-0.0261811912978651,-0.0071461569006586,1
57,0.525306642055511,0.683090448379517,9.88459873199463,-0.00461129619683718,-0.014942514178487,-0.00844655557440367,1
58,0.546701848506927,0.68054187297821,9.85136795043945,0.000743068887547807,-0.00534933563704704,-0.00618482752765375,1
59,0.554010629653931,0.686256408691406,9.84052848815918,0.0209475242371008,-0.00178720982681219,-0.00383034163215123,1
60,0.493352234363556,0.75770902633667,9.89008617401123,0.0189014841506202,-0.00292734927095835,-0.00397048424273284,1
61,0.541755557060242,0.709336459636688,9.8464412689209,0.0259133105817168,0.00435928547608705,-0.00234889793855121,1
62,0.563178539276123,0.740167677402496,9.8458137512207,0.0246003971314429,0.00851550803994745,-0.0052787056921057,1
63,0.498257726430893,0.716260373592377,9.85695838928223,0.0264488473097965,0.0163353328644363,-0.00426641527522596,1
64,0.5436070561409,0.699844896793365,9.84911346435547,0.0276464334013023,0.0290979248550173,-0.00450333934444539,1
65,0.554077684879303,0.74052494764328,9.87388610839844,0.0287065504462896,0.0385420163096833,-0.00285381325550719,1
66,0.485682874917984,0.692047536373138,9.90840244293213,0.0355359898740132,0.0491751987880967,-0.00267388577502764,1
67,0.478243887424469,0.679206609725952,9.91063499450684,0.050122447737135,0.0448189330349996,-0.0014599867815478,1
68,0.504385888576508,0.68892115354538,9.87813758850098,0.0622956322442111,0.0429664548254973,-0.00174653017119839,1
69,0.507216989994049,0.875230610370636,9.8450231552124,0.0534396062895321,0.0341940230007223,-0.00313119318638357,1
70,0.553025007247925,0.718963027000427,9.8432502746582,0.0489420723241739,0.0548135352570932,-0.00416963407666248,1
71,0.695368409156799,0.727612614631653,9.71957015991211,0.0624992683602505,0.0825588926093243,-0.00521768757407521,1
72,0.804649233818054,0.968093752861023,9.53395080566406,0.084215120813623,0.134555390160791,0.0157472736062331,1
73,0.595176160335541,2.01915264129639,9.71101665496826,0.157938951539474,0.129285235712498,0.142850013435303,1
74,0.57451993227005,3.38315296173096,9.57782936096191,0.1450632001697,0.118479592747556,0.506777218178436,0
75,1.11518156528473,2.1146388053894,9.64888572692871,0.0794175942350349,0.258982728761741,0.935699984523659,0
76,2.25836658477783,0.0207304786890745,9.9059009552002,0.21018692639925,0.533643420281751,1.1769229242135,0
77,6.34399509429932,-0.340574443340302,11.1470222473145,0.516833980244848,1.0077739120528,1.23153144183974,0
78,4.73890924453735,1.30960988998413,12.4533376693726,0.519731233194745,1.62297018255258,1.30764738211335,0
79,1.46308624744415,0.497935920953751,14.0230398178101,0.441976949508033,1.03631607471962,1.41925007707032,0
80,3.8444983959198,-1.94332134723663,12.8920946121216,0.275240578202618,0.0449041000944225,1.37422454515257,0
81,4.59500598907471,-3.35984897613525,8.0068416595459,0.233590120268594,-0.173346303841478,1.10450784574872,0
82,4.85489845275879,-2.85110831260681,6.91088390350342,0.0507404009785743,-0.129595593848033,0.794062025634721,0
83,4.58114337921143,-3.1701500415802,8.97055816650391,-0.195085538016983,-0.139049366309381,0.420947697434385,0
84,4.26378679275513,-2.53619027137756,11.4852495193481,-0.275518811957504,-0.357828515912581,0.0178832016212877,0
85,3.51248455047607,-1.50575733184814,13.8959169387817,-0.371616499824248,-0.77532435710006,-0.310502545445219,0
86,3.03748440742493,-0.892197906970978,12.4326906204224,-0.441847486589541,-1.21352501076139,-0.567206706867801,0
87,2.49245762825012,-0.213802471756935,10.4567966461182,-0.466415247514063,-1.37527556167677,-0.753490830377209,0
88,1.94174218177795,0.376289784908295,10.164213180542,-0.515867851980394,-1.38858377711806,-0.843529643671698,0
89,1.4993177652359,0.508737504482269,10.0080223083496,-0.545240354985583,-1.38005740057206,-0.895898109926043,0
90,1.10079705715179,0.728601694107056,9.74632740020752,-0.513795313441067,-1.29961275826263,-0.914510942784607,0
91,0.799166262149811,1.06289875507355,10.151439666748,-0.486031259865746,-1.21925813079806,-0.870940162612311,0
92,0.488180100917816,1.38212502002716,10.0672206878662,-0.423670480043369,-1.15636931271054,-0.780610066073595,0
93,0.266228437423706,1.95087552070618,9.14465808868408,-0.403068199271489,-1.03246341272865,-0.649538198809546,0
94,0.0576366558670998,1.963054895401,8.27670097351074,-0.377699725675721,-0.829903779691389,-0.487856756924454,0
95,-0.238941371440887,2.01481318473816,8.63844966888428,-0.382461957047487,-0.592610600506067,-0.327702504766468,0
96,-0.817708551883698,1.93998277187347,10.4717807769775,-0.431532098291769,-0.491320530817239,-0.180680349877933,0
97,-1.07486212253571,1.77303814888,11.8124217987061,-0.390962068167234,-0.55855636017306,-0.0592701522490158,0
98,-1.24173414707184,1.99962162971497,10.9999370574951,-0.275321122180836,-0.722410342296412,0.0559419956735546,0
99,-1.06082367897034,2.24328064918518,8.24664688110352,-0.225419608623258,-0.670815990391925,0.209059577020306,0
100,-1.07351338863373,1.88933861255646,7.55006980895996,-0.210590162277802,-0.451103003352489,0.358218768880818,0
101,-0.873661279678345,1.08303606510162,7.70599603652954,-0.14138422621608,-0.247102849836845,0.431984502781946,0
102,-0.499336868524551,0.65705132484436,7.34689521789551,-0.0670589496863592,-0.0327136487327475,0.42953702445065,0
103,-0.169559895992279,0.282223910093307,7.54010772705078,0.0211949984813964,0.198938932377246,0.386315184960182,0
104,-0.00256406702101231,0.405998259782791,9.084059715271,0.08309909819169,0.341393849220079,0.339844222360789,0
105,0.351025849580765,0.306491613388062,10.5224876403809,0.177671443899335,0.311768179463765,0.305134944268164,0
106,0.830121040344238,0.279648154973984,9.94678115844727,0.32756205630848,0.207886238178288,0.269302128445905,0
107,1.22331583499908,0.292293429374695,8.89049243927002,0.344483448979707,0.225261966131482,0.224904353531355,0
108,1.23309934139252,0.183026075363159,8.97598934173584,0.318804550669377,0.279752522366187,0.184492398662273,0
109,1.13399422168732,0.507650017738342,8.86091995239258,0.418048946456375,0.347628209463414,0.144980109543689,0
110,0.771024703979492,1.23998594284058,9.15420913696289,0.589017530142359,0.422837676280987,0.121980168197654,0
111,0.189228162169456,1.90627503395081,9.12571239471436,0.566574405845989,0.450640845034819,0.142655236491078,0
112,-0.275442361831665,1.88903820514679,9.17138385772705,0.400923722093216,0.468565117593543,0.191841974256835,0
113,-0.691352069377899,1.28485596179962,9.25439643859863,0.270574337143392,0.470428098644594,0.200848319010292,0
114,-1.03393244743347,0.689185559749603,9.21500015258789,0.15876656213773,0.481102148162173,0.11562552461921,0
115,-1.13881254196167,-0.0917280614376068,8.33546447753906,0.0551838644514255,0.540173191669002,-0.0511202759409389,0
116,2.06794595718384,-0.232838466763496,6.30133485794067,0.540660150674323,0.94723999415919,-0.269966903388259,0
117,3.59797954559326,0.708112478256226,13.1193265914917,0.664692317781397,1.30798973147148,-0.221526682965564,0
118,-1.43243396282196,4.64428520202637,19.9954814910889,0.597160677807495,0.814546661265447,-0.0064817288974542,0
119,0.667850315570831,1.73024046421051,9.06725978851318,0.120520689341263,0.310826618860368,0.0637425110196944,0
120,0.393441766500473,0.723173916339874,13.0229597091675,0.108744815179313,0.186294892667066,0.000877624061326759,0
121,1.42170548439026,1.79803669452667,9.27579498291016,-0.0208183650854211,0.244561811327503,-0.00328159260820255,0
122,0.701534509658813,1.0940260887146,10.2611722946167,-0.125067188019976,0.186354381027915,0.00478418580600241,0
123,1.05397617816925,0.85258162021637,9.6215181350708,-0.129108759678388,0.174623505966009,0.00697461447649792,1
124,1.09647524356842,0.515856444835663,9.53311157226562,-0.0748636969619187,0.228633012084062,0.000697472526816045,1
125,1.2822265625,0.597557067871094,9.14222717285156,-0.0146428003649338,0.326652853112327,-0.00627222914567878,0
126,0.760750472545624,0.95793354511261,10.0804328918457,-0.00511107946713393,0.389112702527255,-0.0104087924312228,0
127,0.491840749979019,0.626132488250732,10.4178056716919,0.0167832692777065,0.302721887293957,-0.0122380179154573,0
128,0.952044069766998,0.816052436828613,9.56504058837891,0.0545257141222828,0.299636548592073,-0.0203119858100886,0
129,0.293797224760056,0.809339046478271,10.5316534042358,0.063944103991835,0.279547791857387,-0.0268463886009235,0
130,0.35714453458786,1.2893682718277,10.2458019256592,0.0609449560019178,0.132381035644039,-0.0229874182471282,0
131,0.481047481298447,1.11620318889618,10.0980682373047,-0.029029639740192,0.0647793045991974,-0.022475569088588,1
132,0.607876062393188,0.728641211986542,10.0493898391724,-0.0207972116801064,0.0522706283737986,-0.0237837907980352,1
133,0.516325175762177,0.740754723548889,10.1897239685059,0.0335735501592204,0.0241015163190546,-0.0140790819829751,1
134,0.526576101779938,0.860539376735687,10.041615486145,0.0616843285831187,0.000628183200002542,-0.0044067820698759,1
135,0.627122938632965,0.896836459636688,9.88021469116211,0.0529185921117717,-0.0238682775030233,-0.00169154603758693,1
136,0.661413669586182,0.924370944499969,9.85695171356201,0.0558604696546845,-0.0108383665568364,-0.00227983234067596,1
137,0.582033812999725,0.887208342552185,9.929123878479,0.0543186783146644,-0.0295206975168782,-0.00150468913678667,1
138,0.668441653251648,0.937600910663605,9.78092384338379,0.0475131532412919,-0.0330325373061492,-0.000943671821750932,1
139,0.726564347743988,0.992616713047028,9.76389503479004,0.0345192324205238,-0.0147567732566162,-0.00366762457014199,1
140,0.587030291557312,0.981030642986298,9.94092178344727,0.0265943516126665,-0.0191928318932802,-0.00411442627913135,1
141,0.662051558494568,0.983543038368225,9.77908611297607,0.0186806560813875,-0.0338559555062827,-0.00298501581115995,1
142,0.710252583026886,1.02339327335358,9.76668453216553,9.77869222336915e-05,-0.0193982427565148,-0.00370964451879072,1
143,0.6458899974823,0.954033255577087,9.88802433013916,-0.0160457702719444,-0.0167706234237178,-0.00374875943722693,1
144,0.68891042470932,0.882711410522461,9.8641471862793,-0.00884932435946723,-0.0237433357166012,0.00141092571065568,1
145,0.642280697822571,0.922293484210968,9.86557960510254,-0.000806434761530485,-0.0237243378072938,0.00373926048257322,1
146,0.681417286396027,0.841631591320038,9.84409618377686,-0.00994923277621057,-0.0017621762426026,0.00472741054051328,1
147,0.590116262435913,1.01444089412689,9.98049545288086,0.0104777287721584,-0.039681824289102,0.00460134991434411,1
148,0.660761535167694,1.00233197212219,9.90004253387451,-0.0128202556699651,-0.0594922182720364,0.00358458881981413,1
149,0.728080749511719,0.912068486213684,9.81053066253662,-0.0114890163424401,-0.0691933651091385,0.00353005279426501,1
150,0.827266693115234,0.867920160293579,9.72571182250977,0.0020606775896517,-0.0461471555003522,0.00926450077043757,1
151,0.699431598186493,0.987762749195099,9.83324909210205,-0.00228273789103713,-0.0387162453016233,0.010969904868443,1
152,0.757218658924103,1.03997731208801,9.81371116638184,-0.0205093260468635,-0.0413802927250029,0.0104372726504271,1
153,0.790138185024261,0.95307195186615,9.76551532745361,-0.0442233836362306,-0.0154818479917147,0.0100666896235534,1
154,0.775337934494019,0.837628483772278,9.73769378662109,-0.0435903876958216,-0.00572372043040659,0.0135599725895725,1
155,0.772949576377869,0.799435019493103,9.79599952697754,-0.00162315117139639,0.000369131649592643,0.0182562022990886,1
156,0.879486978054047,0.820835888385773,9.59657287597656,-0.0103289818626018,0.0394255657743983,0.0151091406777527,1
157,0.727675199508667,0.909238278865814,9.87531089782715,-0.000666068552047777,0.057115496801952,0.0116116091375571,1
158,0.77777111530304,0.945424377918243,10.0465774536133,-0.0547059269042971,0.11989941547084,0.00262907158782892,1
159,0.745178282260895,0.792719483375549,9.95801162719727,0.0226010747161472,0.0109095572220228,0.0179967063791848,1
160,0.517183125019073,1.15476751327515,9.85240459442139,-0.00999505371112214,-0.0170129149068608,0.0232807758441734,1
161,0.575854897499084,0.87644624710083,9.89817523956299,-0.0582519467016837,0.00727255302270728,0.0257648976075937,1
162,0.820894539356232,1.04028165340424,9.99715137481689,-0.0563272801818834,0.00705351062379151,0.0261149201986142,1
163,0.379810810089111,0.876982927322388,9.81678771972656,-0.0258689460630263,-0.053349870244364,0.0213084990781042,1
164,0.937232851982117,0.729043006896973,9.79429340362549,-0.00898678612390465,-0.060184660961403,0.046114415263701,1
165,0.701669454574585,0.871849477291107,9.74754619598389,-0.000503798200201364,-0.044440635163343,0.0245581506580569,1
166,0.964053690433502,0.993179380893707,9.78300666809082,-0.082674540379661,0.055746032790406,0.016313430445065,1
167,0.750781297683716,0.761680245399475,9.73518657684326,-0.0212697188753245,-0.0038886786439632,0.0198847190638882,1
168,1.00282073020935,0.92824524641037,9.95203113555908,-0.0668422307914648,0.0668555299521584,0.0242414342254193,1
169,0.661275744438171,0.4892238676548,9.82327079772949,-0.0111284867486815,0.0332407403273392,0.0181603180968727,1
170,0.811234414577484,0.682203590869904,9.84080410003662,0.043131853773948,0.0398021825256168,0.00702870057346444,1
171,0.793388307094574,0.702440857887268,9.80163478851318,0.0167327430781033,0.0899971847576997,-0.00354625750531976,1
172,0.753719925880432,0.86570793390274,9.76830863952637,0.0337172672313276,0.0884958276931675,-0.00546131635939837,1
173,0.663228452205658,0.917251884937286,9.99722862243652,0.00986932650023789,0.0756883115039481,-0.00522148673981778,1
174,0.582235515117645,1.20232760906219,9.99612808227539,-0.0598024598942738,0.0592035607381962,-0.00634620416659089,1
175,0.873918890953064,0.969307959079742,9.71962833404541,-0.112077245296086,0.0489011803178735,0.00735838327165944,1
176,1.09946763515472,1.0760715007782,9.28680515289307,-0.0587761067384817,0.10177900942021,0.0579156893245475,0
177,1.32186508178711,3.79998350143433,8.83628082275391,-0.0344313418627673,0.186381894810927,0.355465759393463,0
178,2.21656012535095,5.42472219467163,8.97919368743896,-0.104456767962014,0.503591311855888,1.10281793687901,0
179,4.21291303634644,2.96228075027466,9.53725433349609,-0.174309269602137,1.09288407969691,1.80924099025654,0
180,6.80696058273315,1.8875983953476,10.3956565856934,-0.338844105502924,2.12929249952732,2.14070627532718,0
181,10.5882339477539,2.51005148887634,12.3539352416992,-0.316493093290757,3.16050482575488,2.34321743883261,0
182,3.03510284423828,2.00570225715637,13.401837348938,0.345094278265231,3.06986813279567,2.49404263769205,0
183,1.67516207695007,-1.85033297538757,19.6227836608887,1.22917041637533,1.72636647976853,2.77919155666457,0
184,6.71608018875122,-4.17133665084839,11.4259347915649,1.96359780703753,0.622739208234243,2.58925517403623,0
185,5.76181602478027,-4.773268699646,5.59615182876587,1.89342790652974,0.576605668144964,2.24295022273945,0
186,5.4104642868042,-7.73949098587036,7.10847473144531,1.52261614740789,0.533460327956808,1.62767119450879,0
187,5.66667079925537,-8.23089790344238,11.3013277053833,1.0875881841322,0.264530659234107,0.80849056636758,0
188,5.8870210647583,-7.82582664489746,13.8410730361938,0.36621168097096,-0.507870911859104,-0.0210702169007586,0
189,5.60228776931763,-6.5569224357605,11.9380502700806,-0.297944009850787,-1.22644400520936,-0.802405176697722,0
190,4.66439390182495,-4.40624094009399,10.0532360076904,-0.673678289352515,-1.59745616720324,-1.41786523330348,0
191,3.57259225845337,-1.95946907997131,10.6076097488403,-0.861383741935698,-1.80169718699473,-1.80190731040474,0
192,2.87209272384644,-0.713569939136505,11.1247138977051,-0.921835301572598,-2.00505350467209,-2.02088852735565,0
193,2.07456374168396,0.0078914538025856,10.4604091644287,-0.830297794374666,-2.1006985383773,-2.15354164651693,0
194,1.35951328277588,0.817834317684174,10.2854776382446,-0.70182457312329,-2.03226475258414,-2.12210089931967,0
195,0.2963747382164,0.796421945095062,13.4896230697632,-0.732753660496116,-1.92138683691783,-2.01771217512351,0
196,-1.43940901756287,0.450308531522751,16.3535003662109,-0.696211495072757,-2.18978953263983,-1.90974016768064,0
197,-2.09968709945679,0.832170963287354,13.2631492614746,-0.63413853638519,-2.29063199152845,-1.77606692466381,0
198,-2.61144638061523,1.78118777275085,11.0807828903198,-0.652090638977306,-2.12916133884363,-1.5745599060474,0
199,-2.72907614707947,2.82431101799011,10.0883417129517,-0.786812901147526,-1.85405280349681,-1.29248241076006,0
200,-2.71696877479553,3.34774398803711,8.18093109130859,-0.828183643943307,-1.48282026492273,-0.961361938471553,0
201,-3.75015926361084,1.43795228004456,5.14768218994141,-0.708805250972606,-0.704778617983433,-0.868536926044624,0
202,-4.09058094024658,2.70757102966309,9.31060409545898,-0.14758195134967,-0.421457126861404,-0.816684314093427,0
203,-3.73869466781616,4.76952028274536,12.6940479278564,-0.0486568352878588,-0.459624785945606,-0.56797209936509,0
204,-3.51494026184082,4.37396192550659,12.4826240539551,-0.17891112874201,-0.65944542438075,-0.222409004879465,0
205,-3.14732813835144,2.97698926925659,10.4033842086792,-0.310985909183068,-0.633043844019114,-0.016368396633548,0
206,-3.26286292076111,2.45202541351318,9.71326160430908,-0.180226613807211,-0.650563582408254,0.086815239887273,0
207,-3.22650074958801,2.57303380966187,8.10149765014648,-0.207302406688315,-0.530499658483453,0.164334433028759,0
208,-3.3016619682312,2.32405424118042,6.04272794723511,-0.243406448822842,-0.194879475927638,0.213517242631908,0
209,-3.85693287849426,2.82510852813721,6.74155235290527,-0.0638199840402805,0.205562214008273,0.309949639913405,0
210,-5.06329441070557,3.52946996688843,12.3612537384033,-0.0347521466637972,0.26439214156791,0.504821892016586,0
211,-5.20552492141724,1.32597184181213,7.8546576499939,0.0560006559577528,0.25618362994277,0.588573581188643,0
212,-7.6644024848938,0.0514814108610153,3.37849378585815,0.486986668906812,0.885063837979383,0.332554451377456,0
213,-9.33750438690186,0.613668859004974,3.52595949172974,0.30782726697218,1.44706186780818,0.0101941260429029,0
214,-0.0649606883525848,4.01332330703735,10.1494140625,-0.242410393285639,1.24850589799569,-0.00128544726086348,0
215,7.89227771759033,5.32882308959961,9.90785217285156,-0.242996155567402,1.56712169712281,0.312993666328879,0
216,2.45458817481995,-6.03171634674072,6.72080278396606,-0.306743726593167,2.5151505861759,0.302204568252209,0
217,-6.20803117752075,-5.4448184967041,28.186336517334,0.802602050881306,1.67308701268429,-0.177040308010499,0
218,0.619723975658417,4.30113458633423,11.3563680648804,0.688671753131607,0.244658733746425,-0.125486777372097,0
219,1.46167457103729,1.23326909542084,11.0544958114624,0.308938803832151,0.75687304496161,-0.131577967739704,0
220,-0.971365749835968,3.07409167289734,13.3989791870117,0.121290883850893,0.461971397050616,-0.106992604984853,0
221,0.0777947157621384,0.859453022480011,11.4542655944824,-0.0574969405326462,0.125952397799183,-0.0425110626014721,0
222,0.546375751495361,1.19818007946014,10.3437652587891,-0.0997797743898877,-0.0300674153603471,-0.0163200238493575,0
223,0.705156266689301,0.824021995067596,10.274435043335,-0.149842891891363,-0.0299862804932621,-0.012679668852436,0
224,0.655660092830658,0.399570673704147,9.98874378204346,-0.109368061453419,-0.0926148640497874,-0.00809787704749584,1
225,0.85970276594162,0.126832142472267,9.65806293487549,0.00688453409292328,-0.0821206694519517,-0.0210037356614529,1
226,0.941358029842377,0.749071419239044,9.55440235137939,0.0633542013268148,-0.0583243763609554,-0.0406040395238936,1
227,0.93262106180191,1.30577754974365,9.71454429626465,-0.00547271437677472,-0.0363622106350751,-0.0368297951434657,1
228,1.1167631149292,0.642359912395477,9.2401294708252,-0.0489716916689226,0.0189788240131517,-0.0284898565185304,0
229,0.824181973934174,0.676429271697998,9.77235984802246,-0.0233515181412233,0.0650821767553559,-0.0324829191138057,1
230,0.842182457447052,1.0097861289978,9.89774227142334,-0.0378016367206953,0.0803072231971759,-0.0321123381675266,1
231,0.777624905109406,0.875456392765045,9.96437358856201,-0.0834508019031486,0.0635352421854806,-0.020273299234066,1
232,0.830052733421326,0.732156693935394,9.88172340393066,-0.085529265975901,0.0585037444215614,-0.0107469525121221,1
233,0.697218537330627,0.654057741165161,10.0255355834961,-0.0690071726982391,0.0517473921210037,-0.00601160502335225,1
234,0.71621161699295,0.765273153781891,10.0026655197144,-0.0533608141719686,0.0208422461502586,-0.00234330972152557,1
235,0.741251766681671,0.66333144903183,9.80857753753662,-0.0550715830831542,-0.00383592932902822,-0.000176128200954468,1
236,0.806991338729858,0.522712767124176,9.76841926574707,-0.0261342572448417,-0.0144854293907535,-0.00544030651511117,1
237,0.920004069805145,0.550017237663269,9.5110912322998,0.0028881225205623,-0.00307866727529394,-0.0125489118041023,1
238,0.750229835510254,0.544405877590179,9.97085380554199,0.0381175708497627,0.0287597491696585,-0.0151414398283483,1
239,0.706549406051636,0.735364317893982,10.0649814605713,0.0381117535072566,0.0217007619007269,-0.0024304801334755,1
240,0.79133415222168,0.624343693256378,9.84048271179199,0.0378694682658974,-0.00972907257784508,0.00482285105593035,1
241,0.843504965305328,0.709018051624298,9.66720390319824,0.043955498758893,0.0200398377944123,-0.00368930488603957,1
242,0.685856103897095,0.977810859680176,10.18030834198,-0.0126401042654915,0.0231580644551642,0.0060072456575132,1
243,0.692552506923676,0.726423859596252,10.0016460418701,-0.049642899809785,-0.000692219740651338,0.00953249383869441,1
244,0.846159100532532,0.652386486530304,9.71045780181885,-0.051298458062622,-0.00971677938464138,0.00699159732993367,1
245,0.833472549915314,0.685089826583862,9.78885841369629,-0.0356796008357957,0.0116677123709899,0.00439415338079269,1
246,0.66118448972702,0.847091019153595,10.0443525314331,-0.0605557017190891,-0.00472908749976219,0.0136352973962324,1
247,0.883545279502869,0.741312801837921,9.76256942749023,-0.0784544120925374,-0.0184009347013614,0.0224195844490475,1
248,0.792066752910614,0.561124742031097,9.83184623718262,-0.0940638733541427,0.00987201046727398,0.0289497386657058,1
249,0.715368568897247,0.764029026031494,9.9903039932251,-0.0683719463604172,0.00350211274943412,0.0363182851218456,1
250,0.63940417766571,0.864766478538513,10.0780973434448,-0.105272186275905,-0.0358262328209398,0.0479224270053774,1
251,0.700434565544128,1.01802504062653,9.8907299041748,-0.189075732187813,-0.0523458709969718,0.0660670054040888,1
252,0.726534366607666,0.813117206096649,9.80750560760498,-0.23492997325777,-0.0796196282932311,0.0750104454603605,1
253,0.80097770690918,0.142513409256935,9.64185047149658,-0.201356683172875,-0.084843551929476,0.089924347301886,1
254,0.937237322330475,0.0529930181801319,9.45022106170654,-0.0896705147604878,-0.0650599476826322,0.078984256313787,1
255,1.02535796165466,0.316927701234818,9.59031772613525,-0.0249136514546635,-0.0176423270230685,0.0772327951333828,1
256,1.04149484634399,0.294304639101028,9.64385795593262,0.0202995584185331,0.0522464893152306,0.0854010597365489,1
257,1.0000878572464,0.0409852080047131,9.79136848449707,0.089750426237947,0.117385341467535,0.0741646338205297,1
258,0.89682412147522,0.0799546539783478,9.86197090148926,0.143197322930963,0.143107474533687,0.0528879990487494,1
259,0.824606478214264,0.345388472080231,9.96694087982178,0.151743140552918,0.169933978892002,0.0272054555366772,1
260,0.97072571516037,0.449980556964874,10.0167284011841,0.145351137817808,0.177746694844886,0.0236663516357465,1
261,0.529520213603973,0.373089015483856,9.90581607818604,0.109454897149713,0.161556456406183,0.003148069409346,1
262,0.581679999828339,0.339795231819153,9.88081741333008,0.219849623848114,0.140739391692388,-0.00056191203573302,1
263,0.710054039955139,0.646305918693542,9.93302345275879,0.237922667243233,0.110434590890969,-0.0143580356235933,1
264,0.664240479469299,0.761160492897034,9.92209434509277,0.22852929860436,0.107841154687179,-0.00700512431573614,1
265,1.01736545562744,0.85786110162735,9.6022310256958,0.18761260812968,0.152879494745298,-0.0168612749305106,1
266,0.710771799087524,0.950419545173645,9.86686134338379,0.140878375411777,0.166852618286997,-0.0118870965075689,1
267,1.14647090435028,0.896771311759949,9.56925582885742,0.12281232281452,0.245005843505003,-0.000575769901095721,1
268,1.20952939987183,1.14548468589783,9.39246940612793,0.156263457029164,0.366251362071202,0.041356565624166,0
269,0.58587509393692,2.9812548160553,9.48305225372314,0.147415320689215,0.387243562916183,0.249042013939829,0
270,0.810773968696594,4.59991073608398,9.53058052062988,0.155687165614028,0.405119432522095,0.828739978295025,0
271,2.68611359596252,2.90502548217773,9.59080123901367,0.0499964344444931,0.830793874706721,1.57329224136852,0
272,3.9332287311554,-0.415978014469147,9.99498844146729,-0.131854029353826,1.93541969849173,1.81384852525849,0
273,9.54467964172363,-1.92692506313324,10.8810653686523,-0.302371315425962,2.8727406825919,1.93727152755572,0
274,7.95171928405762,1.08328104019165,11.9364128112793,-0.237288035955467,4.58041603256581,1.85702329337669,0
275,2.91937899589539,1.1645416021347,14.4527721405029,0.220116006536149,4.20962011925245,2.17332467235847,0
276,2.79973435401917,-3.0232994556427,15.442458152771,1.06468413323017,3.01677561961996,2.36918565630586,0
277,3.78953123092651,-3.37381362915039,15.303840637207,1.54996481443219,1.33812246709934,2.38985897689982,0
278,5.49144411087036,-4.1534423828125,8.78606986999512,1.22385234999455,0.828707820624862,2.18512367441001,0
279,5.1108193397522,-5.21088075637817,10.5473232269287,0.789020262217038,0.470234153938209,1.79836384141633,0
280,5.27083015441895,-6.7020902633667,11.6814832687378,0.327154559372184,-0.249822886060954,1.19965233832706,0
281,5.47021436691284,-6.49712324142456,9.83079051971436,-0.104116590744649,-0.828590508378844,0.475618499740618,0
282,4.99943017959595,-5.56174230575562,9.93048763275146,-0.504558205779155,-1.21696874436697,-0.26290434998018,0
283,4.07334804534912,-3.99121069908142,11.2965431213379,-0.754917752089273,-1.67064595922913,-0.913610061966861,0
284,3.22677040100098,-1.48590302467346,12.02077293396,-0.879145162193764,-2.12313340687429,-1.35794344298642,0
285,2.10396385192871,0.246384263038635,12.6669406890869,-0.913357594295521,-2.50394373799274,-1.57837927852473,0
286,1.14792704582214,1.21875178813934,11.3583526611328,-0.787765247553338,-2.72579331259572,-1.64309009827202,0
287,0.182702571153641,1.55136263370514,11.364444732666,-0.70166152108555,-2.69800748767849,-1.56595922730699,0
288,-0.974620819091797,0.913174152374268,11.6785945892334,-0.637532735194496,-2.64474692903799,-1.4464208449338,0
289,-1.90799915790558,0.278443962335587,10.5104475021362,-0.613346904859806,-2.43290098643768,-1.3137952894898,0
290,-2.66521644592285,-0.814172506332397,9.19810199737549,-0.578482664081251,-2.03605509660559,-1.24341699662671,0
291,-3.49507975578308,-0.846033334732056,12.1750555038452,-0.521994354199581,-1.63254451298753,-1.22491694864031,0
292,-3.84392976760864,0.341775894165039,13.96764087677,-0.342532583612684,-1.56476586482252,-1.18266017214986,0
293,-3.84719896316528,2.62407922744751,14.5325298309326,-0.459866101629881,-1.59449459891302,-1.03430924968019,0
294,-3.63038110733032,3.24598288536072,11.9457654953003,-0.629098171127079,-1.66452628136024,-0.820946104206853,0
295,-3.27623867988586,2.96801829338074,9.37732410430908,-0.559417360153483,-1.45895621102675,-0.650776302400324,0
296,-3.2632474899292,2.66705179214478,8.21711826324463,-0.390015247820683,-1.09811259728603,-0.505706361104115,0
297,-3.76232433319092,2.46441125869751,8.49040603637695,-0.227703552218867,-0.735710901149567,-0.380939561010343,0
298,-4.29678678512573,3.14519929885864,10.2670698165894,-0.0958074365974392,-0.531882105405313,-0.252382483474143,0
299,-4.34339570999146,3.792156457901,11.4144115447998,0.0744183581710086,-0.542753395291126,-0.0917459328427434,0
300,-4.48866748809814,3.78559422492981,11.064416885376,-0.0128969765556027,-0.610541464388489,0.0628397035713467,0
301,-4.59287643432617,2.09083271026611,8.85546493530273,-0.17294273506779,-0.645620622267013,0.0813778056330094,0
302,-4.99387264251709,1.2587183713913,6.35834360122681,-0.0244166036461192,-0.408475181943163,-0.0522399978600735,0
303,-5.3541955947876,2.13155102729797,5.83982372283936,0.198477523073633,-0.075198298185752,-0.159815464777814,0
304,-5.33533000946045,2.90580320358276,6.19412517547607,0.100531418318049,0.201810802073004,-0.144328267577379,0
305,-4.89949083328247,2.49924540519714,6.28056287765503,-0.0655629855230345,0.430575790433835,-0.093183873383818,0
306,-4.51887178421021,2.37110042572021,7.04890727996826,-0.10017658539231,0.669830421051514,-0.0714205958570962,0
307,-5.51990222930908,-0.314516812562943,3.07661986351013,0.480305996154294,1.70460685576593,-0.412234699875,0
308,3.60864782333374,3.89641165733337,7.80320072174072,0.316250146420314,1.66728638151399,-0.233847198537571,0
309,5.34771299362183,4.04083824157715,9.84243011474609,0.378958335606892,2.1957175960683,-0.0255541375356384,0
310,-0.152523189783096,-1.31186962127686,15.9164657592773,0.428304746524757,2.83748975082306,0.0513316227405719,0
311,-6.30138874053955,-0.757267117500305,25.852029800415,0.78177965984533,0.899462551308033,-0.109787367844674,0
312,2.18545627593994,3.62369203567505,9.89357471466064,0.619051462493783,0.509731828960311,-0.142391134134726,0
313,0.540426254272461,1.70529651641846,10.7429075241089,0.168351162387627,0.720353982460707,-0.107988302659784,0
314,-0.365759313106537,2.29773497581482,12.2615118026733,-0.0128151550922992,0.519086415315809,-0.0689195338924295,0
315,0.0676290541887283,0.87055766582489,10.914023399353,-0.06501932615363,0.289771134649983,-0.0406311247044176,0
316,0.711965441703796,0.869404792785645,9.86706638336182,-0.0765393745645534,0.216716414825636,-0.0335222718246688,1
317,0.214641973376274,0.814438223838806,10.6136951446533,-0.0696739283666541,0.174336716806121,-0.0231695826268788,0
318,0.314357757568359,0.529785096645355,10.2457809448242,0.007920294137058,0.092871551166979,-0.0160860068909452,0
319,0.373181909322739,0.839101314544678,10.1132535934448,0.0448504457208358,0.0295764678551747,-0.0166548456162185,1
320,0.52791702747345,0.93345832824707,9.96930027008057,0.060992560006403,0.0141355201921388,-0.0116521796919914,1
321,0.536311745643616,1.11815309524536,9.94829082489014,0.00960222808765975,0.0263366429235255,-0.00675389095714404,1
322,0.571972608566284,1.07044994831085,9.74377250671387,-0.0142102842785535,0.0209276295915201,-0.00424786391353491,1
323,0.468446612358093,0.912376046180725,9.98300170898438,-0.0237663595764628,0.0176942919538387,-0.00409431057037419,1
324,0.507070958614349,1.02689516544342,9.97128105163574,-0.0374730692212067,0.00155643261426893,-0.00127089480199674,1
325,0.513396322727203,1.0364294052124,9.79237747192383,-0.071729106424625,-0.000839514590231781,-0.000938083864799619,1
326,0.592418253421783,0.793475568294525,9.78615283966064,-0.0722903509796024,0.0164397142150052,-0.00624830490850336,1
327,0.442884355783463,0.838329672813416,9.90426445007324,-0.046115193406082,-0.0112748888281221,-0.00460436781681377,1
328,0.547763228416443,0.802274525165558,9.77932643890381,-0.0312117964867001,-0.0253347471572755,0.00304122905603231,1
329,0.681209027767181,0.817095398902893,9.62667369842529,-0.0199411551924573,0.000148747868580707,0.00407944680254019,1
330,0.518328309059143,0.7984419465065,9.85338115692139,-0.000826550860399128,0.0121057961285241,0.00180408487944015,1
331,0.505307376384735,0.846323788166046,9.82823276519775,0.0018262127832514,-0.000305989276983186,-0.00085024330633222,1
332,0.502728939056396,0.836149454116821,9.92997932434082,-0.00372529085026926,-8.64995339734259e-05,-0.00251630934213036,1
333,0.49508661031723,0.898357689380646,10.0006237030029,-0.00423467632472683,-0.010615748135949,-0.000757932460326068,1
334,0.495720356702805,0.815058350563049,9.9090747833252,-0.0114695669441042,-0.0225028373614369,0.000833144524766001,1
335,0.699179172515869,0.884258031845093,9.63792991638184,-0.0250283109425644,0.00995113339937916,0.000371366760852729,1
336,0.544111609458923,0.890805542469025,9.90221977233887,-0.0382383784947115,0.0312378351281394,-0.00195238563149189,1
337,0.501774966716766,0.882375955581665,9.91401672363281,-0.0417308104975385,0.0176689773593207,-0.0031286982933819,1
338,0.51653116941452,0.843104004859924,9.88400268554688,-0.0317790726854276,0.00540733741305383,-0.00875634362701793,1
339,0.54220449924469,0.745086789131165,9.87651252746582,-0.029019136898643,0.00614828292377351,-0.00294835989546853,1
340,0.382579237222672,0.796563804149628,9.96637153625488,-0.0428691121264657,0.0228467117954096,-0.00328452286562461,1
341,0.647789299488068,0.919016242027283,9.92257118225098,-0.0475454607142659,0.0213429183545989,0.00475132697545895,1
342,0.432302236557007,0.895117878913879,9.90233993530273,-0.063153586234137,-0.0170571670734427,0.00221624286779219,1
343,0.531604051589966,0.789760231971741,9.8224515914917,-0.0513476308354368,-0.0211789716611801,0.00556089101628886,1
344,0.532846748828888,0.954317510128021,9.90018272399902,-0.075296161033434,-0.0211342700861642,0.0175715868066133,1
345,0.452577888965607,0.925678491592407,9.90902805328369,-0.0942983230762321,-0.021816428396415,0.0331012676682193,1
346,0.428210645914078,0.879552483558655,10.0167026519775,-0.109750466418819,-0.0428074308189059,0.0449132588718588,1
347,0.452729344367981,0.691237688064575,9.89756488800049,-0.103207795345038,-0.076803984585988,0.0551711645019772,1
348,0.591592013835907,0.652025938034058,9.81876564025879,-0.081443211204906,-0.0745824837955632,0.0605158083981976,1
349,0.676795363426208,0.535707473754883,9.78326606750488,-0.047484657417628,-0.0606388506017484,0.066883692880686,1
350,0.685853898525238,0.560422360897064,9.7832202911377,-0.0212272476977216,-0.0398284479518677,0.0623541926598685,1
351,0.783524751663208,0.357221990823746,9.72512912750244,0.012264939769305,0.0127604677034928,0.0511155197016796,1
352,0.711634874343872,0.480165123939514,9.76992988586426,0.0603959994386576,0.0386942367719274,0.0373274484050391,1
353,0.633383512496948,0.561128079891205,9.85076904296875,0.0784896074308184,0.0552002220861835,0.0256151468111418,1
354,1.12502324581146,0.31949856877327,9.66421413421631,0.0327061003355328,0.122591854688153,0.0394962019611235,1
355,-0.0253907032310963,0.680064618587494,10.066330909729,0.166733907881406,0.0147519712442757,0.0419635666156223,1
356,0.861602783203125,0.583921015262604,9.66809749603271,0.143174719351211,0.0862757000951797,0.00121915184466313,1
357,0.695167779922485,1.07892191410065,9.91279888153076,0.194825330533726,0.138921784248409,-0.0168084091022779,1
358,0.73188453912735,0.913901805877686,9.73246574401855,0.140896484907189,0.149810634352659,-0.0104635391169753,1
359,0.897223711013794,1.00160074234009,9.61934185028076,0.112783923413717,0.198409096478375,0.0192425768296105,1
360,0.328968077898026,1.94182372093201,9.74586296081543,0.128066648099084,0.196539224498003,0.0998738255882596,1
361,0.697280645370483,3.72625279426575,9.58022403717041,0.0478928076606287,0.186239881745799,0.437436259849448,0
362,1.57610154151917,4.48507642745972,9.05277919769287,-0.03721181311827,0.485562177329242,1.186574353162,0
363,3.54737782478333,0.21844282746315,9.60267734527588,-0.112222445832145,1.3088832220172,1.64220233352265,0
364,4.43090724945068,-1.43455171585083,9.69221878051758,-0.22768071561252,2.06597398039792,1.85708641029452,0
365,10.9420471191406,-1.7834552526474,11.5802593231201,-0.232236768381643,4.23586663705961,1.65790606236446,0
366,4.45259189605713,3.19847273826599,13.344614982605,-0.358987923093147,5.21820369885566,1.84619727722941,0
367,3.44126725196838,0.50722599029541,15.9710578918457,-0.0260186968594783,4.67948935354229,2.36050721326162,0
368,-1.18529939651489,-4.89010620117188,21.3078575134277,1.00894716767103,2.66952098507846,2.50826365159696,0
369,7.30000686645508,-4.48193407058716,12.177939414978,1.39113335438764,0.924203384413896,2.35767068038458,0
370,5.51347064971924,-4.26723957061768,6.72292852401733,1.23731489562101,0.660714220903091,2.09041527446018,0
371,5.13674354553223,-5.71532583236694,8.66969966888428,1.00131261719508,0.331602271419212,1.68063707437467,0
372,5.74506139755249,-5.77108764648438,9.39414596557617,0.813242178384499,-0.136667310194738,1.10622691623237,0
373,5.61521768569946,-4.68393754959106,11.6150569915771,0.377348721044048,-0.706491829512681,0.562584258163751,0
374,4.6654109954834,-4.49840354919434,13.8369216918945,-0.259969479879886,-1.54034214762346,0.0255874832253186,0
375,3.92620086669922,-3.91903614997864,11.0471534729004,-0.548130950032754,-2.19650775596372,-0.525075032369557,0
376,2.686683177948,-2.03545641899109,10.1902837753296,-0.786348512432443,-2.52401331996758,-0.979515242884024,0
377,1.54004752635956,-0.658034682273865,9.71806812286377,-1.03204309932961,-2.7141560975804,-1.29162633762765,0
378,0.585081100463867,0.523560106754303,9.19551563262939,-1.12908163207521,-2.64582124822173,-1.46210766270269,0
379,-0.148042783141136,1.2775342464447,11.6043138504028,-1.20771918642696,-2.48442116930581,-1.51484064913124,0
380,-1.84782004356384,1.36856150627136,15.7027950286865,-1.12811703512838,-2.58386680020267,-1.48219588680516,0
381,-3.00429439544678,1.47226905822754,14.6457538604736,-0.979114703456076,-2.71734709719854,-1.40688515328714,0
382,-3.71172165870667,0.689914643764496,10.8766040802002,-0.796967734121079,-2.54426452952876,-1.33480323627472,0
383,-3.58443760871887,-0.317454934120178,9.03730869293213,-0.53443993847428,-2.19968890188582,-1.30042688660787,0
384,-2.67580056190491,-0.187466323375702,8.97239398956299,-0.326286035961682,-1.6745846413233,-1.2606515104631,0
385,-2.61749315261841,0.892754971981049,10.7986688613892,-0.457033962968636,-1.23807536127028,-1.20823970126202,0
386,-2.71259593963623,1.65473103523254,13.3857851028442,-0.602772890330673,-1.10937657027458,-1.08142076910077,0
387,-2.97059535980225,1.78888249397278,15.4757270812988,-0.848169269764779,-1.21525127177998,-0.976728777435474,0
388,-3.1856951713562,1.10897088050842,12.962742805481,-0.832164204245621,-1.50336934905183,-0.989383985777476,0
389,-3.40242075920105,1.17550945281982,10.6035680770874,-0.502593991317167,-1.32268665226319,-1.06189154251111,0
390,-3.35437989234924,2.08356881141663,9.57553863525391,-0.116316440152139,-1.17016155767995,-1.07451772239723,0
391,-2.41262817382812,2.68081855773926,8.75166511535645,-0.0947297634952034,-0.914139431812541,-1.0238074068166,0
392,-3.92283892631531,3.21421504020691,9.86149501800537,-0.109296788604746,-0.78411598449063,-0.90910366050731,0
393,-4.01150131225586,4.2584171295166,8.06482696533203,-0.361642894962874,-0.633394116281486,-0.66085743239071,0
394,-4.24180459976196,3.16249680519104,7.6237530708313,-0.592780909657778,-0.484013848760984,-0.433568084945135,0
395,-4.63729858398438,3.0305507183075,8.35910129547119,-0.602253440760053,-0.330027910451298,-0.270298400364947,0
396,-4.7131781578064,2.68703651428223,8.70502853393555,-0.576843488430308,-0.278633095891486,-0.134300667124904,0
397,-4.45661020278931,2.23300933837891,7.9824686050415,-0.153790662022755,-0.17975438541167,-0.0183430525595442,0
398,-4.49876642227173,2.40264582633972,8.46612453460693,0.191824597130722,-0.0228336456613114,0.0847245335958847,0
399,-4.2579927444458,1.88269066810608,8.0784969329834,0.12014018187814,0.028694499642357,0.1824632363592,0
400,-3.54694247245789,-2.0370512008667,0.114087097346783,0.0815552969972847,0.68447853941625,-0.00401655042773308,0
401,-5.32437133789062,2.43555021286011,2.70143985748291,1.08757899622644,1.77390070943314,-0.175881183790799,0
402,3.81943511962891,0.691832959651947,12.6332569122314,0.470416314156771,1.65125029016814,-0.151712181305246,0
403,7.02783632278442,1.72325670719147,8.47412967681885,0.38706193532984,2.13901237171584,-0.11081955082654,0
404,0.963443756103516,-0.466950058937073,8.59490585327148,0.720138799044629,2.959817528122,-0.070787678979282,0
405,-7.77618360519409,-0.00356930494308472,31.9242916107178,1.09711837267208,1.34962705669238,-0.178253660847896,0
406,3.42723441123962,2.83563137054443,7.10710954666138,0.820343231115086,0.40341534231958,-0.19144591226847,0
407,0.498569786548615,2.67460036277771,12.7702550888062,0.325753903086371,0.958790523281028,-0.176106437284749,0
408,-0.585090041160583,2.79078722000122,13.265040397644,0.0091436255061643,0.636852031219872,-0.10988285881451,0
409,0.153751760721207,1.10227870941162,11.2315521240234,-0.104738522082966,0.289487175098754,-0.0587367502109974,0
410,0.503064334392548,0.549807548522949,10.5775842666626,-0.0915442316796835,0.151107227618878,-0.0359759898591755,0
411,0.816724717617035,0.584795355796814,10.0091676712036,0.00784117172510147,0.100308503412431,-0.0270495420190153,1
412,0.718917608261108,0.647397458553314,10.0976047515869,0.0820575525341169,0.105327713184633,-0.0203088399510509,1
413,0.763051927089691,1.06263649463654,9.86870861053467,0.0812037097991238,0.0642091259710007,-0.0228249175669575,1
414,0.809475958347321,1.00541698932648,9.93113803863525,0.0516036688071127,0.0807488751744519,-0.0242766378860788,1
415,0.582140803337097,1.06238281726837,10.2915868759155,0.0210682216105356,0.0304063712686815,-0.0157031265096786,0
416,0.750094354152679,0.983964085578918,9.94187641143799,0.0204365738954285,-0.00393896921622771,-0.00980238648982252,1
417,0.714469850063324,0.824928939342499,9.85245037078857,0.016007440517896,0.00606938365558801,-0.00579502136710696,1
418,0.676736533641815,1.13703191280365,10.0284242630005,0.0403518007179603,-0.0373919301929326,0.0035664845258881,1
419,0.660099625587463,1.17940998077393,10.0842008590698,-0.0297475655522393,-0.076852712111558,0.0030684983691785,1
420,0.844061017036438,0.912958681583405,9.72273349761963,-0.0471585533421478,-0.0850500384601196,0.000304983504549044,1
421,0.834941506385803,0.963639497756958,9.7077579498291,-0.0355119673287428,-0.0772934652719661,-0.000734687082158,1
422,0.732867956161499,0.885249495506287,9.90253162384033,-0.0287274541802521,-0.0952312783403573,0.00779289204751943,1
423,0.932644367218018,0.753523051738739,9.63742256164551,-0.00458581567489973,-0.0983034676843591,0.00937201133528731,1
424,0.901681959629059,0.861129641532898,9.74259567260742,0.0183277289803032,-0.0633929836101891,0.00935077886737773,1
425,0.871929824352264,0.708769679069519,9.77065086364746,0.0332559432320933,-0.0588654974049459,0.00742923688052046,1
426,0.85450279712677,0.970316708087921,9.85705947875977,0.0433298889293198,-0.0565080963363322,0.0052848517685589,1
427,0.88613098859787,0.906568944454193,9.82366752624512,0.0343216466735859,-0.0516755325446528,0.00504167083122374,1
428,0.991389691829681,0.783480226993561,9.62843036651611,0.0441805774828968,-0.0406290690769512,0.00196859034254665,1
429,0.837799549102783,0.920395612716675,9.8991003036499,0.0496991216371101,-0.0229974716802433,-3.12918151757362e-06,1
430,0.970995426177979,0.841277956962585,9.67361545562744,0.0505247681540619,-0.0145046499236833,-0.00208738748292438,1
431,0.811007022857666,1.05634009838104,9.99244976043701,0.0519451984109693,-0.01451985178814,-0.0050183140762259,1
432,0.881403982639313,1.20596814155579,9.87577247619629,0.00758480033814066,-0.0329576546258422,-0.00168372313192199,1
433,0.911107957363129,0.896070003509521,9.91450309753418,-0.00925209626542269,-0.0528626074722312,0.00179827364868065,1
434,0.925647556781769,0.940779030323029,9.82335186004639,-0.00814369538166416,-0.0471616825564286,0.00360515263663361,1
435,1.0101420879364,1.00083363056183,9.65376949310303,-0.0101168683638581,-0.0374652461855046,0.00599852952657835,1
436,0.904017269611359,1.05511426925659,9.87304306030273,-0.0249018024684072,-0.024832514506984,0.00666280928741738,1
437,0.894637227058411,1.01950347423553,9.74394416809082,-0.0414882547788812,-0.0388496863169931,0.0111918533378685,1
438,1.03028321266174,0.856842696666718,9.71053695678711,-0.0538420348973783,-0.0103059590430375,0.0149473172311249,1
439,0.959285616874695,0.941123068332672,9.81066417694092,-0.0276331300794195,0.00292075560659148,0.0165474474034773,1
440,0.943591833114624,1.10539543628693,9.73555660247803,-0.0572340740494878,0.000176016466522503,0.0327805252850275,1
441,1.00882863998413,0.905274391174316,9.7359094619751,-0.0626071014172635,0.0282324848857148,0.0390335234948035,1
442,1.00037682056427,0.724337518215179,9.69477939605713,-0.0366858554477361,0.0492845049060876,0.0446416913420764,1
443,1.02754735946655,0.75469446182251,9.66667556762695,0.00912614747121335,0.0794010992810333,0.0516159692823975,1
444,0.946612179279327,0.901223361492157,9.82705879211426,0.0125275669840843,0.112681058816613,0.0554085312176981,1
445,0.887335002422333,0.944849669933319,9.8023157119751,0.00265097634786915,0.109194722955969,0.0559098879376623,1
446,0.866267442703247,0.983782112598419,9.77992248535156,-0.0204532269746199,0.0891806762122382,0.0580857696108519,1
447,0.991724669933319,0.98133248090744,9.57653999328613,-0.0526388811347185,0.107732947123138,0.0522950046201512,1
448,1.00278270244598,0.744581997394562,9.68693828582764,-0.0580711430308025,0.145808385932218,0.0451128669567494,1
449,1.01561462879181,0.757938742637634,9.98013877868652,-0.063931657874928,0.17669879089021,0.0568790413866666,1
450,0.757955491542816,0.753705322742462,9.8718147277832,-0.0794864119820783,0.229891006159231,0.0496151113882857,1
451,0.730254292488098,0.698207855224609,9.74367332458496,-0.0271887941351074,0.131690178367759,0.0122528712803183,1
452,0.709419310092926,0.756342947483063,9.97545909881592,-0.0238220154820562,0.109133686632735,-0.00810458124345093,1
453,0.863512516021729,0.763430535793304,9.9061803817749,-0.0447859764165098,0.12067211501637,-0.0170147052585155,1
454,0.881929934024811,0.770377993583679,9.87821197509766,-0.0523699892495938,0.143388171712581,-0.0162603461543991,1
455,0.978220641613007,0.765454113483429,9.86833572387695,-0.0197111662651937,0.17241001962599,0.00596723842406722,1
456,1.15105020999908,1.06850576400757,9.39570140838623,0.0269164547047278,0.219028654507827,0.0529561801338446,0
457,0.707395076751709,3.18620729446411,9.47109603881836,0.0613846813485927,0.232803722088207,0.27389326836239,0
458,2.22840166091919,6.34943103790283,8.79487609863281,-0.00345780154598035,0.585713679073034,1.03392089421423,0
459,4.54334354400635,0.413816899061203,9.02871131896973,-0.16710438687855,1.58038011145171,1.71435921851974,0
460,4.54659223556519,-1.97201061248779,9.99314975738525,-0.14898189191094,2.65246849830257,1.7809716684434,0
461,11.9078702926636,-2.60839891433716,12.6983308792114,-0.122476722905278,4.21759761829778,1.71219859592736,0
462,4.31376028060913,-0.391588807106018,14.4855632781982,0.17594729676486,4.89000691139087,1.51394183226334,0
463,1.39130783081055,-3.26925444602966,20.7242622375488,1.07541301057669,3.39288666983691,1.75739150751963,0
464,6.22919607162476,-2.52046084403992,17.0935020446777,1.54214976821335,1.26554839791749,1.80301838121152,0
465,6.30471897125244,-1.66158819198608,7.41662645339966,1.0952526285914,0.886911139669516,1.7866657731701,0
466,5.45868968963623,-4.25737237930298,10.0174474716187,0.657481875709035,0.596213990618999,1.54315551099902,0
467,5.93723297119141,-4.74607086181641,9.3720588684082,0.498373846385286,-0.0225090084050253,1.06414710679635,0
468,5.96563386917114,-3.92178702354431,8.9351110458374,0.213893613872963,-0.438050784270983,0.645632739649973,0
469,5.59593057632446,-3.85791897773743,9.77259159088135,-0.0551332352623896,-0.959702123322162,0.244964864113729,0
470,4.84242820739746,-3.36858749389648,10.8890066146851,-0.326165960686033,-1.49446293941828,-0.163942748611435,0
471,3.90418934822083,-3.02670431137085,10.0595922470093,-0.478336089185476,-1.9915102652646,-0.582567021087051,0
472,3.19402480125427,-1.43155491352081,8.64420413970947,-0.578797316564044,-2.20810795303989,-0.940966851632482,0
473,2.19204759597778,-0.0958863794803619,11.840708732605,-0.839368387889422,-2.32373588282646,-1.19981306009884,0
474,1.24838018417358,0.61999773979187,12.8967237472534,-0.957916407232236,-2.62662917782608,-1.35513034592697,0
475,0.517832934856415,1.85083866119385,11.3245477676392,-0.923921289075429,-2.66148223332805,-1.32856291720845,0
476,-0.564057946205139,1.67419040203094,12.7914695739746,-0.825107626305238,-2.52359786683753,-1.19152490331235,0
477,-1.56801962852478,1.04872143268585,14.4721174240112,-0.542425160686773,-2.53181078932322,-1.0320899709648,0
478,-2.53999829292297,0.528561592102051,12.5835266113281,-0.549496352723638,-2.42353704572885,-0.870784301109514,0
479,-3.14059019088745,-1.06326770782471,10.73752784729,-0.687945375944288,-2.13524146877034,-0.833856643118367,0
480,-3.29553151130676,-1.71276915073395,10.4137659072876,-0.78079116102772,-1.69338229756152,-0.977061872308816,0
481,-3.49898552894592,-0.158616304397583,13.1048173904419,-0.731715560303203,-1.48846416906288,-1.1345922450028,0
482,-3.10838794708252,2.39431309700012,11.8996667861938,-0.772629903867172,-1.42759735603301,-1.10583616392143,0
483,-2.92300152778625,3.42652344703674,10.9998664855957,-0.814541734417431,-1.27496959658975,-0.914337903892779,0
484,-2.89462685585022,3.24520659446716,11.1199817657471,-0.654593344611708,-1.10960220659793,-0.739370883435663,0
485,-2.97102952003479,2.94124174118042,11.1119985580444,-0.369490831221174,-1.04020775202055,-0.636857157804971,0
486,-3.00912618637085,3.25150871276855,10.4334449768066,-0.0892903235477438,-1.01401343217075,-0.535272708947148,0
487,-2.88346695899963,3.61605596542358,8.52554035186768,0.00525070973129489,-0.87083916222797,-0.371659010533148,0
488,-3.01367950439453,3.57366943359375,7.67708349227905,-0.0635005836406067,-0.638663446814317,-0.178569461818909,0
489,-3.4786102771759,3.76384019851685,8.79927158355713,-0.0502715265015306,-0.432190298555182,-0.0090969983408446,0
490,-3.99030494689941,4.5013108253479,9.25676250457764,0.0488371396160355,-0.403091402062486,0.204862318629044,0
491,-4.13265657424927,5.01360511779785,7.0778341293335,-0.0417282638497461,-0.315868781752215,0.519609393574874,0
492,-4.21196031570435,3.80489540100098,6.00618839263916,-0.193591987343396,-0.0183896786845666,0.828005411887354,0
493,-4.24356126785278,2.2182240486145,6.18472337722778,-0.00594529127191198,0.282544180978863,0.977407084565117,0
494,-4.38820505142212,1.1343959569931,7.97185802459717,0.141445379052611,0.510215459014269,0.970611429832535,0
495,-4.06952333450317,-0.43454921245575,8.29313182830811,0.176265128396205,0.54145104293905,0.817307693525587,0
496,-3.60752439498901,-3.35958957672119,6.07665491104126,0.172525201343136,0.740543939316816,0.390763762534564,0
497,-0.410237163305283,0.262431442737579,5.38735437393188,1.26573748235488,1.55441788609091,-0.134983776266887,0
498,7.2930269241333,0.478630304336548,8.76459503173828,0.437791159354214,1.6807192328943,-0.151230615201133,0
499,5.72676086425781,1.66126549243927,3.49478983879089,0.425279628553022,2.81013376010577,-0.12289672005394,0
500,-0.665174961090088,0.224789634346962,9.29796123504639,0.374756766223615,3.25357990900817,-0.0712178377519787,0
501,-7.07775783538818,-0.741969287395477,33.0940437316895,0.914046154595361,2.11606977155702,-0.149588360270179,0
502,1.60678732395172,1.25653195381165,11.9617557525635,0.750614816137005,0.457525915401001,-0.1660962472479,0
503,-0.0255441293120384,4.69891977310181,13.2819795608521,0.345811633994357,0.970915163354859,-0.152387475733906,0
504,-0.415128231048584,1.0370055437088,12.3673639297485,0.0552652697958086,0.602243387326938,-0.0782969194035728,0
505,-0.377954453229904,1.03251814842224,12.1396827697754,0.0461754682316911,0.27442488525024,-0.022673843512339,0
506,0.488341391086578,0.979554831981659,10.4036083221436,0.0372543612778732,0.0806666251086605,-0.0114606276693983,0
507,0.451847672462463,0.584898471832275,10.4681615829468,0.0392992778432689,0.0487887449856018,-0.0181121502512505,0
508,0.766693711280823,0.360707849264145,9.80487060546875,0.107406809758144,0.0266913614165618,-0.0236523658788344,1
509,0.622399508953094,0.774762570858002,9.78195762634277,0.179823710823796,0.0143635065470983,-0.0316074236307936,1
510,0.920265018939972,1.19698452949524,9.64603614807129,0.125974302299149,0.0679534389174896,-0.0453156999632726,1
511,0.575626492500305,1.05434501171112,10.0095376968384,0.0730253917628427,0.0842052837623465,-0.0436263861436189,1
512,0.545606434345245,0.912066698074341,10.1407928466797,0.0812533361415618,0.0395080405444067,-0.0336820635706682,1
513,0.675253450870514,0.966708481311798,9.74136924743652,0.067909837977018,0.0134846498635072,-0.0372922447443796,1
514,0.703788757324219,1.21086609363556,9.68674850463867,0.0380990119459163,0.0265013719205145,-0.0374507111516177,1
515,0.680686712265015,1.12305867671967,9.77599143981934,0.0117893023195088,0.0349863716816697,-0.0264339814613679,1
516,0.540744960308075,1.05299961566925,9.93294334411621,-8.67230272193246e-05,0.0173201303042501,-0.0154963767838179,1
517,0.65856808423996,0.995601713657379,9.84182548522949,-0.0167531890812535,-0.00172462593130681,-0.0107612545194136,1
518,0.54221111536026,1.10225343704224,10.0285511016846,-0.0330555507630378,-0.00416739847776303,-0.00568259279676763,1
519,0.548858106136322,0.967542827129364,10.0152425765991,-0.0433382737255643,-0.0329800106148366,-0.00027313288463653,1
520,0.641882061958313,0.897944808006287,9.86964225769043,-0.0452830554339731,-0.0389764111729889,0.00277189556470338,1
521,0.6536985039711,0.889647483825684,9.84842395782471,-0.0381306411450501,-0.0201181784229473,0.00288029974493452,1
522,0.548891007900238,0.865994274616241,9.99501895904541,-0.024452991165107,-0.0285978144112195,0.0069361671688545,1
523,0.63104510307312,0.857430100440979,9.9157886505127,-0.0151329478814818,-0.0667217602028416,0.00407318915420148,1
524,0.612425029277802,0.912683546543121,9.92573261260986,-0.0181709353711248,-0.0669383501008707,0.0048548141904978,1
525,0.691261410713196,0.851844012737274,9.80972766876221,-0.0117089507962914,-0.0870580868891746,0.00527702925300544,1
526,0.792055606842041,0.906041443347931,9.73645210266113,-0.0114119011841255,-0.0473161250937072,0.00165321355275809,1
527,0.70269364118576,0.938214302062988,9.84151554107666,-0.0155580674540533,-0.0521292644541858,-7.24181997467945e-05,1
528,0.679632663726807,1.11485719680786,9.88246250152588,-0.0429871400970266,-0.0731911152840513,0.0033639823339066,1
529,0.783896565437317,0.881375968456268,9.700758934021,-0.0675485302408783,-0.077734909189782,0.0011297463539624,1
530,0.859718680381775,0.839360415935516,9.72161388397217,-0.0771229230936602,-0.040604251744543,0.00251753819331694,1
531,0.783315658569336,0.794105589389801,9.75602436065674,-0.0546773062449572,-0.0237766377137948,0.00514359187867621,1
532,0.807686328887939,0.901533007621765,9.68630313873291,-0.052522417771298,-0.0225057439520953,0.00485168393591966,1
533,0.849638283252716,0.926599621772766,9.60671710968018,-0.071509836720749,0.0177410054638343,0.0112926571060199,1
534,0.784869372844696,0.842027306556702,9.8001184463501,-0.0852869682509742,0.0568615893591482,0.0135441038945459,1
535,0.778319120407104,0.744337379932404,9.8614387512207,-0.0725650560460441,0.0577444647112122,0.0104050889728319,1
536,0.724055707454681,0.74510657787323,9.71397876739502,-0.0550516967599519,0.0451792420857305,0.0190912510230451,1
537,0.891323983669281,0.75770628452301,9.62171173095703,-0.0456225793446338,0.112599041777417,0.026847822130604,1
538,0.649936676025391,0.884522616863251,9.92387866973877,-0.0646658913874629,0.113951952578313,0.0181627773596918,1
539,0.692028880119324,0.72186279296875,9.88460826873779,-0.054381154409362,0.105857199543611,0.01890104098397,1
540,0.709682643413544,0.727115631103516,9.84049034118652,-0.0414989906470256,0.100684899620622,0.0251473355179395,1
541,0.621917545795441,0.779075860977173,9.96736812591553,-0.0483706786287298,0.118250569216188,0.024621188513297,1
542,0.321936875581741,0.721872448921204,9.85283374786377,-0.0904626304148399,0.033840421786987,0.0439487950830866,1
543,1.03698861598969,0.666373670101166,9.87919998168945,-0.00532340986786485,0.0853212897395226,0.0277988723259795,1
544,0.724785447120667,0.576413333415985,9.66051197052002,0.00408928203329639,0.112449938045886,0.0231433151200333,1
545,0.617505967617035,0.767474830150604,9.90694332122803,0.048062783917203,0.146840577236462,0.0167115106101938,1
546,0.499392509460449,0.797906756401062,10.0622625350952,0.0364515097553768,0.128889340171701,0.00569142336040558,1
547,0.538249969482422,0.718299448490143,10.0018968582153,0.0265150102181281,0.115953284847993,0.00035192119861304,1
548,0.589349806308746,0.736541867256165,9.95100498199463,0.0124455385016179,0.0942423550814484,0.00314449286722581,1
549,0.557866871356964,0.80828320980072,10.014705657959,-0.0115560666243694,0.0828686598559925,0.0153889785710766,1
550,0.595502972602844,0.920422852039337,10.0543165206909,-0.031786450473885,0.0605017186115554,0.0512500675933774,1
551,0.305202096700668,1.45439076423645,10.1677083969116,-0.105849284961746,0.027549209296163,0.0932059443313521,1
552,0.670148551464081,2.88589382171631,9.75343990325928,-0.133861620052069,-0.0428340749133743,0.279670363846558,1
553,2.32921934127808,5.85415935516357,8.75070381164551,-0.100132268727295,0.250137871438883,0.972853811470382,0
554,2.86596250534058,4.79541635513306,8.72023487091064,-0.223402630282173,1.19088108411883,1.98175883461717,0
555,3.7280478477478,1.52353739738464,9.13847923278809,-0.23132949597728,1.98296711080374,2.60970851752415,0
556,4.79922199249268,2.90894722938538,10.5178813934326,-0.603901005368431,2.58805568628126,3.2672603012118,0
557,9.48306274414062,-2.93203520774841,12.0348167419434,-0.850659525121085,3.60567989883696,3.40519473513082,0
558,2.52291083335876,2.93231797218323,11.6426486968994,-0.27918150733896,3.77178684866349,3.40021675442124,0
559,-0.910880208015442,-1.62125611305237,19.7548065185547,0.851752020379263,2.58478931920428,4.13519195731967,0
560,3.47958064079285,-4.42361259460449,15.760627746582,2.16931541649541,0.981201756223344,4.13805485549151,0
561,3.25805354118347,-2.96856164932251,8.63411235809326,2.0207303355869,0.773691040403514,3.99955822826637,0
562,3.19044971466064,-6.70723056793213,12.0325660705566,1.40559272121012,0.400845924499872,3.6477189619083,0
563,4.51215696334839,-8.65682220458984,9.62814712524414,0.876434663415308,-0.192914013108889,2.91285374756289,0
564,5.05394458770752,-8.15787220001221,7.88876056671143,0.122947553141247,-0.491952465654401,2.05329080886448,0
565,5.26255226135254,-6.96771287918091,8.39525699615479,-0.552001055728858,-0.797545240603463,1.18811206237542,0
566,4.93391036987305,-4.05542898178101,10.0236434936523,-1.07340645185337,-1.11286271472052,0.429183689553024,0
567,4.03879404067993,-1.05341792106628,11.6214914321899,-1.50820192116589,-1.4922905989171,-0.163373963981621,0
568,3.35256385803223,1.92321193218231,12.0505199432373,-1.69666783939835,-1.88057336058015,-0.55679244871456,0
569,2.57930660247803,4.83795881271362,11.2188558578491,-1.75487535292172,-2.09843631618934,-0.674493949015379,0
570,1.65198349952698,6.00259256362915,11.4974975585938,-1.54210356236844,-2.19313938981699,-0.57992449949542,0
571,0.886677801609039,6.31278371810913,12.1623001098633,-1.22813125091798,-2.24747173763819,-0.336033172261859,0
572,-0.0853311568498611,4.55016660690308,11.8843469619751,-0.97489166233651,-2.26130073423064,-0.11038068684603,0
573,-1.04393661022186,3.03412485122681,9.25540065765381,-0.71027311878643,-2.04646113224897,0.0205277621956285,0
574,-1.60032308101654,1.742635846138,8.91841506958008,-0.56037323524774,-1.63009853268434,0.0832644638506271,0
575,-1.66465997695923,1.37827813625336,9.70695400238037,-0.513541048135992,-1.22489857282879,0.0852032201570696,0
576,-1.37248063087463,2.19058156013489,10.7141904830933,-0.665861445499942,-0.946217606616709,0.0874001948983305,0
577,-1.18999564647675,2.80897760391235,13.1398639678955,-1.04268262762156,-0.876152035444624,0.129505429200377,0
578,-1.86298859119415,2.62426805496216,12.9188318252563,-1.04659354626137,-0.967196791261863,0.145044707844881,0
579,-1.76746618747711,3.60862469673157,12.9491853713989,-0.675665873053069,-0.994522555100784,0.117816007905314,0
580,-2.02942228317261,5.28133726119995,11.6665458679199,-0.28312558233434,-1.12600261838091,0.253503957253932,0
581,-2.16855931282043,5.38226222991943,9.07558917999268,-0.173009180936987,-1.06311846082531,0.47457943415181,0
582,-2.25470733642578,4.4848575592041,7.01704263687134,0.0201639244564532,-0.814227348250747,0.673598660835922,0
583,-2.23617267608643,4.37930631637573,6.53516483306885,0.17051266715212,-0.446403888898558,0.84630612226616,0
584,-2.36999535560608,4.43302249908447,8.05051040649414,0.0783567156924235,-0.189588141026301,1.02987754988921,0
585,-2.18448615074158,4.22570705413818,8.53945159912109,-0.0209996181647363,-0.109367403985525,1.19378552760367,0
586,-2.14379358291626,4.08135461807251,9.05849170684814,-0.016225140413145,0.0294583878697488,1.33619100951876,0
587,-2.93471622467041,4.45265102386475,10.9392404556274,0.210028751275256,-0.0716150815180776,1.52868575784829,0
588,-2.35247015953064,4.47226619720459,8.60266399383545,0.499909025595663,-0.0765656316684259,1.78652103036486,0
589,-2.28544044494629,3.62939286231995,6.96326637268066,0.660476400617747,0.101691474644131,2.00359489134305,0
590,-2.19393014907837,1.86022758483887,6.91166114807129,0.649990669878751,0.32930126694787,2.09614666344214,0
591,-2.11725354194641,0.224439799785614,7.66972970962524,0.580609597685843,0.508176642752245,2.00417213150933,0
592,-1.82164883613586,-0.831284761428833,8.26882362365723,0.527528602681847,0.621203829286785,1.77377820402299,0
593,-0.953579068183899,-5.92385721206665,6.89137077331543,0.85941539957402,1.01511038822375,1.25353567718847,0
594,-1.02326142787933,0.697392165660858,6.82070207595825,1.79273937835214,1.28062588442897,0.924376223568642,0
595,3.34291648864746,-7.83873271942139,8.98735618591309,1.52573910326017,1.63091212839736,0.571894336439532,0
596,2.04420280456543,-10.9909496307373,17.2814998626709,2.37330636546054,2.23092272146638,-0.155420782925993,0
597,-3.92614412307739,6.15909624099731,18.2115631103516,2.14479049917493,1.09508444996856,-0.464146034528234,0
598,1.06711828708649,10.0727834701538,12.7398958206177,0.639619122171492,0.70929940051287,-0.233358824727921,0
599,-0.488916903734207,-0.593476533889771,12.5638093948364,0.062734537836613,0.696479808552583,-0.134799227525723,0
600,0.229856207966805,2.48830199241638,10.941704750061,0.150599995299759,0.259837387089818,-0.0993762222609567,0
601,0.240973114967346,1.00906503200531,10.8359546661377,0.0194003795271707,0.205751514827507,-0.0600635620332101,0
602,0.594765603542328,0.821312785148621,10.3380842208862,0.0601870245168705,0.0808711392356218,-0.0517481744245739,0
603,0.828005313873291,1.23927509784698,9.70787811279297,0.034256164119689,0.0807441813530307,-0.0551567584649555,1
604,0.780701220035553,0.715932846069336,9.78945255279541,0.0118581471142819,0.101089899843395,-0.0547360955260207,1
605,0.511400997638702,1.24690961837769,10.3197650909424,0.0260796083470354,0.0900883647355212,-0.0592794441845067,0
606,0.575011610984802,1.00232768058777,10.0100994110107,-0.0268112764864265,0.0109855509398472,-0.0574533437533638,1
607,0.892549991607666,1.06386256217957,9.61182117462158,-0.030708005471052,0.0473564844677895,-0.0594812826668103,1
608,0.560665667057037,1.02727448940277,10.082013130188,-0.0208915375169657,0.0461501806849029,-0.0446377798242253,1
609,0.593675792217255,0.917352735996246,10.0041742324829,0.00974616986398393,-0.00637816574071239,-0.0312182775388842,1
610,0.655815243721008,1.10855913162231,9.88367938995361,0.0231408579378088,-0.0279840494067133,-0.0194042785614541,1
611,0.66179233789444,0.990604877471924,9.89130973815918,0.0220362556996442,-0.0401663989330095,-0.0129411777476169,1
612,0.767858505249023,1.27052688598633,9.79322338104248,0.00577859195183523,-0.0453764824539645,-0.00926327113902801,1
613,0.775300323963165,1.13832545280457,9.7224235534668,-0.0509783918726757,-0.0326990533616171,-0.00365376650972354,1
614,0.840659081935883,1.02228140830994,9.63876438140869,-0.0569280851626161,-0.00474652132207785,-0.00312493501789621,1
615,0.818320453166962,0.897225975990295,9.57710361480713,-0.0538751246739225,0.00285973696841234,-0.00315175674312873,1
616,0.884451270103455,1.02201652526855,9.43280220031738,-0.0384686004485704,0.071570764853063,-0.0139970555811034,1
617,0.810994863510132,0.890636503696442,9.63509368896484,-0.0661716842796857,0.0809795382143664,-0.0152710785570837,1
618,0.621280789375305,1.02206194400787,10.1067876815796,-0.0592725199656725,0.123555644364275,-0.0144123422635876,1
619,0.605602443218231,0.92859822511673,9.97316074371338,-0.0797192721298921,0.0746087575441925,-0.00965576178675955,1
620,0.545718669891357,0.813754677772522,10.1169509887695,-0.050704360918885,0.0677822018205867,-0.00469377200714287,1
621,0.491781502962112,0.977880537509918,10.0721588134766,-0.0407204904037465,0.0153174570913485,0.00124887873014533,1
622,0.567884922027588,1.13084781169891,10.1084642410278,-0.0737586099452119,-0.0393894674580602,0.0076567727867487,1
623,0.723009347915649,0.920617580413818,9.78950881958008,-0.100788030533835,-0.0285437231127664,0.015302256267189,1
624,0.644063770771027,0.708766996860504,9.82387256622314,-0.0750038374919057,-0.0226901616157995,0.016362465898636,1
625,0.607627093791962,0.928432583808899,9.9539623260498,-0.0561576326592561,-0.0449895834042248,0.0166364053062643,1
626,0.618955314159393,0.881763756275177,9.975266456604,-0.0810581097889022,-0.071606634303995,0.0203576756675403,1
627,0.707201600074768,0.710975050926208,9.84301853179932,-0.0613406809339576,-0.0738569638132199,0.0195948256568547,1
628,0.608734428882599,1.11955082416534,10.0642538070679,-0.0722736146766269,-0.0946653649310939,0.0288737491090707,1
629,0.720035433769226,0.974634945392609,9.82929801940918,-0.129214478851286,-0.121341009536035,0.0439009871803305,1
630,0.754914283752441,0.754340887069702,9.74349880218506,-0.110946059300697,-0.12788721762064,0.0475185378201209,1
631,0.922562599182129,0.537846922874451,9.50045585632324,-0.0735259412121015,-0.10113985908097,0.0494487844946427,1
632,0.837759256362915,0.736577451229095,9.7071361541748,-0.0504243128855063,-0.0658332922124883,0.0393471190355387,1
633,0.871488690376282,0.699704468250275,9.71326541900635,-0.0485155004965704,-0.0450736227813736,0.0337791774042936,1
634,0.971936225891113,0.511163949966431,9.5449800491333,-0.0231961767870768,-0.0134612920682121,0.0286015033054482,1
635,0.859411954879761,0.728424072265625,9.73552131652832,0.0110161710505993,0.0364439031015132,0.0249095131520009,1
636,0.981376349925995,0.990241229534149,9.54571342468262,-0.0435345154083896,0.0537891753109294,0.0302532623925426,1
637,0.940365731716156,0.628540396690369,9.6817512512207,-0.0457133307199675,0.1310840262589,0.0321249694573531,1
638,0.907094717025757,0.576941847801208,9.68526458740234,-0.0247254616729466,0.179779901823864,0.0352505780677516,1
639,0.558637797832489,0.723300397396088,10.2247905731201,-0.00505720663111407,0.172663519272252,0.0287291394618794,0
640,0.457642436027527,0.848376095294952,10.1786117553711,-0.0182824698059341,0.0952595744269394,0.0283963192270252,1
641,0.684043943881989,0.596200466156006,10.077561378479,-0.0238325204041998,0.0602880540295361,0.0246471148026278,1
642,0.748690187931061,0.559131145477295,9.80413436889648,-0.0028594012124585,0.0702012841967602,0.0195682231742783,1
643,0.864208877086639,0.5918790102005,9.70311164855957,0.039575547516851,0.0850689302591024,0.0174095376154711,1
644,0.670257747173309,0.667744159698486,9.88997936248779,0.0706961494615674,0.120954834533217,0.0181706003953939,1
645,0.556817948818207,0.85398256778717,10.0285348892212,0.0490739528935924,0.106755949832486,0.0170648829585228,1
646,0.590681314468384,0.927358448505402,9.99924182891846,0.00100368507760742,0.0611579589548537,0.017384952269361,1
647,0.45205557346344,1.05666673183441,10.1907978057861,-0.059442829117383,0.000398188421066663,0.0343111459126315,1
648,0.429014593362808,1.20127820968628,10.195143699646,-0.138529999962545,-0.0619747962342622,0.0530656776665389,1
649,0.460291892290115,1.16041195392609,10.2233324050903,-0.248904045550606,-0.123356464881872,0.0838517491276385,0
650,0.685005784034729,1.12463712692261,10.1823263168335,-0.317681462348177,-0.154539559566043,0.118556707905871,0
651,1.07382869720459,1.66314935684204,9.98009204864502,-0.356321066867055,-0.0685417270410989,0.191702424615715,0
652,2.14090132713318,2.96292281150818,9.4061861038208,-0.334141895124225,0.131130506742301,0.431700643099257,0
653,3.19586110115051,8.20191764831543,8.8648853302002,-0.552432055061773,0.664632995868116,1.14118756344238,0
654,4.34084701538086,7.9474024772644,7.8708233833313,-0.781072191101751,1.3229029009437,2.41969330532754,0
655,3.2358090877533,3.72694873809814,9.2141695022583,-0.619637491091655,1.94977307150282,3.49114905826145,0
656,2.9049015045166,5.21277666091919,11.1160135269165,-0.921907872712302,2.18190457844238,4.48912393566233,0
657,1.95256352424622,4.58516311645508,10.6566524505615,-1.45944703161565,2.17396449681036,5.39487247924933,0
658,3.59687042236328,2.98556995391846,11.5969371795654,-0.443490823429688,2.21270590066191,5.95292829829551,0
659,-3.64229679107666,1.11016130447388,20.0090198516846,1.33526196577249,1.49662955412312,6.53297596899135,0
660,-0.530440628528595,-2.89545965194702,14.9191236495972,2.90563871153764,0.331424738443045,6.89402284850226,0
661,-1.50366044044495,-5.46923828125,8.52980327606201,2.72394401353477,0.266003021132271,6.7114828631694,0
662,-0.716679990291595,-9.12796020507812,6.92279577255249,2.14847072148531,0.2922118219205,6.15477886469254,0
663,1.02845394611359,-9.21606922149658,7.93246650695801,1.45566254654859,0.364396803267098,5.33115208911144,0
664,2.61294937133789,-8.76376628875732,11.8470420837402,0.352756259300416,-0.00731276623501882,4.41147894144885,0
665,4.41723489761353,-7.07099533081055,9.85998153686523,-0.580099269441957,-0.520229410766158,3.43606503322258,0
666,5.31722402572632,-4.18111991882324,9.11391925811768,-1.3004159676474,-0.775950199956229,2.48660496139967,0
667,5.40894508361816,-0.911044597625732,9.80942344665527,-1.59921731563211,-1.03709970987037,1.62905390774676,0
668,4.89470434188843,3.20710277557373,9.09003734588623,-1.60982748257304,-1.17242963882232,1.03027129825638,0
669,4.1914758682251,6.27357244491577,9.13876724243164,-1.50067263213202,-1.14930048422915,0.782464158824508,0
670,3.7379584312439,7.79866886138916,10.6286783218384,-1.19828999827143,-1.17815144042436,0.79493474352394,0
671,2.95020604133606,8.53946399688721,11.1495218276978,-0.88377327011513,-1.22754149389458,0.997693114957551,0
672,2.26736664772034,7.83623170852661,10.7009391784668,-0.622648993652316,-1.23223491584168,1.26931623822773,0
673,1.42876005172729,6.67959976196289,10.5935325622559,-0.413736256676614,-1.13829390575996,1.49985890326095,0
674,1.03702449798584,5.40497207641602,9.26042461395264,-0.339796585066791,-1.02396706332395,1.67226862328131,0
675,0.797987520694733,3.88939905166626,8.35956287384033,-0.402251474344189,-0.788748886101959,1.7301114168934,0
676,0.51698499917984,2.94142484664917,8.70464324951172,-0.466406758688088,-0.520597692655402,1.65954949907315,0
677,0.229840636253357,2.86883974075317,9.43660163879395,-0.717345209640163,-0.308436564940076,1.5325028666387,0
678,-0.340104848146439,2.41636657714844,10.8688135147095,-1.11794469187066,-0.22621224858745,1.3507585006815,0
679,-1.01410865783691,1.87904536724091,13.7995548248291,-0.902991772384606,-0.403146229891428,1.09920942018098,0
680,-1.46730446815491,4.18274450302124,13.7983732223511,-0.455693593991999,-0.705123896818762,0.959642601671798,0
681,-1.70140278339386,5.79621505737305,11.6503267288208,-0.394997855772653,-0.93575471248406,1.03001942979629,0
682,-1.79665040969849,5.39297533035278,8.86498165130615,-0.252217184394233,-0.886144815065846,1.17306906380005,0
683,-1.95235311985016,5.09709358215332,6.65252351760864,0.117566777639175,-0.62057838590478,1.30805631049873,0
684,-1.87921333312988,5.60386753082275,5.46279430389404,0.385911183422817,-0.205946341706004,1.49001878934921,0
685,-2.10234928131104,6.42315435409546,7.52507972717285,0.547867530111432,0.117918564574417,1.75500891045039,0
686,-2.12227582931519,7.1351318359375,9.28172302246094,0.587770371803875,0.178233553981666,2.11839843961419,0
687,-2.09686875343323,6.82222127914429,9.65732955932617,0.622328349057071,0.143561743236627,2.50577998756435,0
688,-2.35906791687012,6.52183389663696,10.3066806793213,0.807525969420753,0.1112061336259,2.83676590363878,0
689,-2.69485139846802,5.95232057571411,11.1037158966064,1.14974683002784,-0.0116494229041443,3.12303255132081,0
690,-2.80800700187683,4.63363981246948,9.61681652069092,1.35650120809809,-0.132712757324944,3.30109895865456,0
691,-2.4809250831604,1.07947194576263,6.33014488220215,1.40138292931698,0.0300197489380238,3.22764711157741,0
692,-1.89049732685089,-2.09710884094238,3.93144416809082,1.45814514531676,0.567270689312991,2.84736129003566,0
693,-0.711672604084015,-5.28568553924561,5.53325176239014,1.42584752603877,1.32162658099128,2.7118055916023,0
694,2.14486908912659,-14.5997333526611,9.03043842315674,1.26483214074231,1.68902350180538,1.91319175761144,0
695,0.275731265544891,-25.1959457397461,19.2786273956299,1.15333570591283,2.18470435969638,0.0619303214440579,0
696,-4.54542779922485,5.37464809417725,20.6888236999512,1.91867627156035,0.665340464611695,-0.56641255223074,0
697,1.07321166992188,12.9184627532959,10.4722328186035,0.486147506847328,0.390214418980707,-0.13087548410079,0
698,0.899360001087189,-2.11803865432739,9.98909950256348,0.0542364989890894,0.351393353323054,-0.0494297387316594,0
699,-0.142626389861107,2.52097368240356,11.4563627243042,0.170906082624152,0.191899997879085,-0.0585919574714811,0
700,0.478583335876465,0.996145606040955,10.623987197876,0.0480884875829114,0.04603686318052,-0.0135556158244767,0
701,0.867410957813263,1.11741888523102,10.2283744812012,0.0430022202466992,0.0376555623349044,-0.0109908023606217,0
702,0.668092250823975,0.959073722362518,10.4389019012451,0.0443200480614221,-0.00449842185910445,-0.00637414291105015,0
703,0.385694146156311,1.43849670886993,10.9194107055664,0.02515762197765,-0.118861773008739,0.010725832396321,0
704,0.833651423454285,1.09886622428894,9.91102695465088,0.010050600385499,-0.202556037769792,0.0223192311296273,1
705,1.32576012611389,0.900570869445801,9.55730533599854,-0.0281434229531977,-0.167180386838158,0.02445825090826,1
706,0.635382115840912,1.16740047931671,10.6329050064087,-0.00247160750704013,-0.186096520455368,0.0113136711114963,0
707,0.90578305721283,1.09256792068481,10.1497764587402,-0.0409333061031683,-0.286777208952516,0.0154629759583807,1
708,1.46155548095703,0.777760088443756,8.82872772216797,-0.0347010805498949,-0.200434680158732,0.00664605009790129,0
709,1.20559597015381,0.6686891913414,9.17329692840576,0.01737824651296,-0.115354381530727,0.00477837210453682,0
710,1.27837073802948,1.08609127998352,9.44559001922607,0.0458781637466865,-0.0848084314926006,0.00224865254997601,1
711,1.31861734390259,0.920665681362152,9.34883880615234,0.0446868360837424,-0.0395307231867536,0.00176809930532194,0
712,1.3567556142807,0.864723861217499,9.3037748336792,0.0387360275950956,0.00825131673817644,0.00194355714844855,0
713,1.4721862077713,0.939421355724335,8.90779590606689,0.0341254112325445,0.125981675926417,-0.00941548639978555,0
714,1.16608762741089,1.1871292591095,9.66619491577148,0.0153608229246301,0.190069790354198,-0.0179945904144749,1
715,0.912562191486359,1.12109327316284,10.1437606811523,-0.0153443914287638,0.159832708745873,-0.0129040755443834,1
716,1.06987285614014,0.93082457780838,9.88215160369873,-0.00229167872618896,0.146439338728728,-0.0100674719271236,1
717,0.89633309841156,0.89720356464386,10.0168495178223,0.0196549548408416,0.128649297811323,-0.0086492829907508,1
718,0.938372373580933,1.24029290676117,10.0347127914429,-0.0132464977233242,0.107486846071279,-0.00837838489228145,1
719,1.08756053447723,0.955788254737854,9.57422351837158,-0.0300991527504002,0.0972664826901527,-0.0130397479974635,1
720,0.971828043460846,1.121373295784,9.9126443862915,-0.0460631244455818,0.114661393725574,-0.0106758752393414,1
721,0.941222012042999,1.12078976631165,9.76611804962158,-0.0722333676546531,0.093300919313727,-0.00476797901435306,1
722,1.03875458240509,0.881278455257416,9.48320579528809,-0.0770317431158386,0.0981140420294488,-0.000482341028074811,1
723,1.07373058795929,1.04627239704132,9.71198081970215,-0.0734928847250709,0.163241521651661,-0.00111689478118249,1
724,0.761123359203339,1.22758519649506,10.2396907806396,-0.119550000413443,0.143365884383208,0.0054900400081711,0
725,0.964441299438477,0.825643181800842,9.69528388977051,-0.138321948824761,0.12676151607262,0.0133438414626531,1
726,0.774618983268738,0.974761247634888,10.0001211166382,-0.124494774833177,0.137355146447656,0.0113105429375128,1
727,0.691399693489075,0.90028178691864,10.1084823608398,-0.13086441533751,0.0911241429848587,0.0163818279119988,1
728,0.781504690647125,0.781261920928955,9.94270324707031,-0.11783718003598,0.0542502933312982,0.026577819207962,1
729,0.715406179428101,0.852136492729187,10.0317144393921,-0.0873634099857738,0.0477702023819441,0.0346975997151264,1
730,0.783698201179504,0.917741239070892,9.87476253509521,-0.101096050081038,0.0236363869122939,0.0441935520708325,1
731,0.941903173923492,0.618038177490234,9.57717895507812,-0.0733285760081914,0.0428864434794972,0.0500942931309858,1
732,1.04199349880219,0.626677930355072,9.51670169830322,-0.0442513343441088,0.106541157568192,0.0463875557230023,1
733,0.79763525724411,0.740474581718445,9.91860771179199,-0.0230953803010065,0.13690968282107,0.0388759600656224,1
734,0.669122338294983,0.868755042552948,10.0231161117554,-0.0526625749460418,0.122237812388362,0.0325069499814545,1
735,0.823131740093231,0.729464828968048,9.8031530380249,-0.0646837720174692,0.093690731195909,0.0220143553608675,1
736,0.751946568489075,0.753559172153473,9.87929630279541,-0.055260917191902,0.105296437686581,0.0207678253619531,1
737,0.773651421070099,0.769860148429871,9.84332656860352,-0.0586817767404332,0.102715077253859,0.0187767691490096,1
738,0.786060571670532,0.621323704719543,9.76283740997314,-0.0557605719854821,0.0967786664798558,0.0141519485671132,1
739,0.867971837520599,0.549838483333588,9.71828556060791,-0.0230973859942025,0.139211045154684,0.00389024377125227,1
740,0.582658529281616,0.648374259471893,10.1212520599365,0.0110561808847885,0.128217000187375,0.00498467502270684,1
741,0.494260430335999,0.845888137817383,10.1658658981323,0.00318427773712374,0.0921071323879638,0.00338856872031399,1
742,0.62583601474762,0.81709760427475,10.0206279754639,-0.0328774227368143,0.0714878323522423,0.00348557332272283,1
743,0.7230184674263,0.824876546859741,10.0956573486328,-0.0758685825426113,0.0771433878221618,0.0161884876183455,1
744,0.576260089874268,0.767130732536316,9.98144435882568,-0.113990060749036,0.0749947577770643,0.0214861943406505,1
745,0.784137427806854,0.871380031108856,9.90789222717285,-0.1223530357174,0.0622770858239323,0.0514606237670618,1
746,0.415340691804886,1.36748349666595,9.91956520080566,-0.133427682919576,0.0170749426334217,0.08100458857337,1
747,1.04996132850647,2.66502952575684,9.67640495300293,-0.146406964676727,0.00841314902733134,0.277689571206784,1
748,2.11649250984192,4.47239542007446,8.53429985046387,-0.0974750414930195,0.275054539755719,0.796139158126929,0
749,3.82502841949463,6.037841796875,9.01889228820801,-0.221677634265102,1.01919581049399,1.67504257187274,0
750,3.80788731575012,2.79182600975037,8.99262428283691,-0.406794161373591,1.78187740953014,2.4288543131613,0
751,4.86909437179565,2.7870569229126,10.1668281555176,-0.711231390725668,2.40511223204325,2.93119973168023,0
752,7.54451370239258,1.22380352020264,11.5806760787964,-1.2991799945855,2.98610133018443,3.41709373888129,0
753,8.69392871856689,0.86369788646698,10.2806882858276,-0.550375362330932,3.98807201448486,3.30313201583073,0
754,0.683321595191956,3.24941658973694,15.4828386306763,0.534846203698571,3.36175884406773,3.69798319800635,0
755,-0.83759480714798,-6.11831855773926,23.1167240142822,1.94627780573015,1.53010042901934,4.02020278672056,0
756,5.75884008407593,-5.65375852584839,10.2715787887573,2.50814034723849,0.54639693255749,3.56997196862507,0
757,4.99290800094604,-6.07442665100098,7.55520582199097,2.15016941878662,0.550936457083098,3.13514540690682,0
758,5.28161907196045,-8.09478187561035,13.6552448272705,1.62810595555675,0.106856176235635,2.50569822851889,0
759,6.05576276779175,-8.96984481811523,12.6635751724243,0.904114361363101,-0.760289081691854,1.66125964796714,0
760,6.00036764144897,-8.74183940887451,9.87153816223145,0.181175781064472,-1.31404935505779,0.72174388623362,0
761,5.41324186325073,-6.13506317138672,8.78309726715088,-0.392233661008719,-1.6653175065201,-0.110126563021387,0
762,4.52617263793945,-2.93480229377747,8.61072731018066,-0.963759249505816,-1.88999336082992,-0.689012038539892,0
763,3.82668280601501,-0.29592376947403,8.25140476226807,-1.26070890158459,-1.98185976842248,-1.04217256569378,0
764,3.30999302864075,1.91098916530609,10.6436243057251,-1.36113590734316,-2.0380420810949,-1.20967554456373,0
765,2.33393979072571,3.07825422286987,14.5565147399902,-1.34932212474756,-2.26780763572203,-1.23823208830043,0
766,1.0869597196579,3.70436334609985,14.8873538970947,-1.10609102843775,-2.65817352198974,-1.15310800563963,0
767,0.0559857338666916,3.88060569763184,11.4394369125366,-0.861763175812007,-2.66619736003804,-0.912683881118758,0
768,-0.783626973628998,2.1382155418396,9.27591705322266,-0.746330722049449,-2.38484877194105,-0.697996412214356,0
769,-1.24692070484161,0.148155018687248,7.80528545379639,-0.642063504578021,-1.88805564482078,-0.637819158169735,0
770,-1.70712888240814,-0.64095813035965,9.95770072937012,-0.522344193698276,-1.40493984726889,-0.696998459174876,0
771,-1.89178204536438,-0.0477058738470078,11.5783233642578,-0.454035809502939,-1.08542955891064,-0.765355279612539,0
772,-2.26943492889404,1.4617794752121,12.9596128463745,-0.758833464419044,-0.923780008379601,-0.721431164542617,0
773,-2.52585101127625,1.42269039154053,13.7043113708496,-1.09424475527686,-1.00045374774353,-0.656136912779518,0
774,-2.65226793289185,1.42978000640869,13.4091062545776,-0.929171777743548,-1.13401979852649,-0.665447390529462,0
775,-2.74985146522522,2.53716778755188,12.8418216705322,-0.570340847996661,-1.18647288672447,-0.66680540294832,0
776,-2.81756496429443,3.4025354385376,10.6705636978149,-0.334037133024844,-1.19590527067331,-0.589120128423355,0
777,-2.8404643535614,3.65706610679626,8.84439945220947,-0.111887345265607,-1.04231384638961,-0.444607486874758,0
778,-2.96608996391296,3.73734259605408,8.48642158508301,-0.057057127800998,-0.853611506031384,-0.256547634129513,0
779,-3.34772658348083,2.86433982849121,9.6353874206543,-0.172334585588113,-0.73581210127099,-0.119921319970806,0
780,-3.39460134506226,1.52511775493622,9.64773082733154,-0.198852462865603,-0.760403863934837,-0.149439422986216,0
781,-3.66080403327942,1.27197170257568,7.37351369857788,-0.239755554573966,-0.6839663469596,-0.308494322246217,0
782,-4.33515882492065,1.26739370822906,6.40541887283325,-0.197132843104982,-0.411663351952638,-0.431402768531332,0
783,-5.34563970565796,1.24330580234528,7.57307052612305,-0.0687282523471345,-0.240944739224471,-0.509913822731304,0
784,-5.12927389144897,1.42282772064209,5.46616363525391,0.211821408228773,0.0144031304309889,-0.603344071805468,0
785,-5.04243469238281,2.09885692596436,5.03144550323486,0.386004427350483,0.426002377183356,-0.626651791349732,0
786,-5.71806859970093,2.69386434555054,8.71679401397705,0.220525617356561,0.669540069913668,-0.548288642458801,0
787,-3.40830087661743,1.47233879566193,2.54645776748657,-0.131809163411837,0.893623237722898,-0.59382387011968,0
788,1.53215909004211,2.45972871780396,4.49170923233032,0.485566971019204,1.68353179732153,-0.508548919383125,0
789,9.9257287979126,4.20346403121948,3.91086483001709,0.331139647048352,2.74294193948696,-0.342092496242548,0
790,-0.190315216779709,2.04786086082458,8.78973770141602,-0.0431142935555103,3.7170804598672,-0.200415988096831,0
791,-5.07977390289307,-1.14424431324005,29.8017673492432,0.659952223936192,3.27911855859759,-0.266616879763535,0
792,-4.53968048095703,2.86839604377747,21.8707485198975,0.201947405592168,0.710704484303996,-0.141484394362581,0
793,0.50862580537796,3.33995223045349,12.9863386154175,0.320312365899553,0.857445792210825,-0.129398985980558,0
794,-0.0828055292367935,1.50428247451782,11.5542774200439,-0.149867426262905,0.592151138639001,-0.0814102629087947,0
795,-0.436322510242462,0.35368338227272,12.2505226135254,-0.0618621570037195,0.204069329124959,-0.0472070769694469,0
796,0.0852796286344528,1.02298605442047,11.2377882003784,-0.0486015663728612,0.111609119833099,-0.00920851405030246,0
797,0.386021852493286,0.621895492076874,10.5135116577148,0.00403921538502588,-0.0929241902104001,-0.00340186788100758,0
798,0.819661378860474,0.525259494781494,9.84889698028564,0.011347865683774,-0.0931014319033233,-0.00284889655038922,1
799,0.74579244852066,0.581378757953644,9.78514099121094,0.0885443305145206,-0.0577003269773334,-0.0131675974148414,1
800,0.808387458324432,0.825349569320679,9.85840797424316,0.117899206722244,-0.057882266652867,-0.0102328729561689,1
801,0.668591856956482,0.847884953022003,10.0383014678955,0.112972067422353,-0.0617483692849567,-0.00270853027588793,1
802,0.788070321083069,0.919225811958313,9.81612968444824,0.109586299182373,-0.0867203647734389,-0.010193310449819,1
803,0.968012034893036,1.03164720535278,9.49055957794189,0.0775499609744544,-0.0474663398627553,-0.0155759512049516,1
804,0.793527364730835,0.901318252086639,9.7989444732666,0.0555312322037343,-0.0273488230688913,-0.0119194986475973,1
805,0.76066529750824,1.10106432437897,9.80665111541748,0.0347246391225691,-0.0410389961477416,-0.0127632609017455,1
806,0.73168408870697,1.00754821300507,10.0561714172363,0.0102463926598903,-0.0592497083264603,0.00302580664854777,1
807,0.920786082744598,1.00783503055573,9.65433979034424,-0.0272285730232959,-0.043361072881209,0.00381547838446587,1
808,0.781309008598328,0.985909819602966,9.79496669769287,-0.0489502407385798,-0.0439149354865398,0.000254469512184536,1
809,1.02125537395477,1.06370711326599,9.41094303131104,-0.0890831212925572,-0.0287641121765381,-0.000930708221955442,1
810,0.971271991729736,0.889994204044342,9.60822868347168,-0.117956755968925,0.0147747683193257,-0.0077527719418163,1
811,1.03528904914856,0.646182298660278,9.41307544708252,-0.111216719691233,0.0740955664021342,-0.00900086758816844,1
812,0.751991987228394,0.808354735374451,10.0323944091797,-0.0776484147110033,0.107745447335504,-0.00575389529391395,1
813,0.688683032989502,0.901787102222443,10.0481491088867,-0.0908694365937279,0.0625593892218591,0.00116595559200028,1
814,0.786625683307648,0.902520596981049,9.87344360351562,-0.106840771513205,0.0526897225444038,0.0031599147545617,1
815,0.763395607471466,0.704138576984406,9.94795989990234,-0.102129339939232,0.0422418294988327,0.00736598212329322,1
816,0.629998445510864,0.753817319869995,10.0487899780273,-0.0911264732508125,0.00278821288794095,0.0097043759199238,1
817,0.763596475124359,0.744176626205444,9.92812347412109,-0.0906177678707154,-0.0159943660614194,0.0130740580427415,1
818,0.799597382545471,0.642111420631409,9.8470458984375,-0.0683306091068721,-0.0110784224410799,0.0150031988812326,1
819,0.838808715343475,0.672455191612244,9.75805759429932,-0.0615574872138252,-0.0217435680540607,0.0149318969042349,1
820,0.998356401920319,0.648576557636261,9.6042013168335,-0.0553771392063488,0.0605395022095208,0.0116811249240892,1
821,0.66880214214325,0.582442343235016,9.93910884857178,-0.0304339724366666,0.0283495994752457,0.0199557963366689,1
822,0.703649997711182,0.568032503128052,9.97287178039551,-0.00545416327515799,0.00935323500930495,0.0204647347433615,1
823,0.798876404762268,0.67603462934494,9.85986232757568,-0.00682653283706515,0.0126786618446488,0.0115695894489826,1
824,0.732947826385498,0.937373876571655,10.0380544662476,-0.0263939778689624,0.0087680792208684,0.00805998993994891,1
825,0.622238636016846,0.755245208740234,9.99822807312012,-0.0624586842819512,-0.0339766528797176,0.0216705870372195,1
826,0.734734177589417,0.596969842910767,9.93718528747559,-0.05225040915546,-0.0541377539692963,0.0266001689551726,1
827,1.0118225812912,0.80816924571991,9.90961456298828,-0.0547787768436784,-0.00320539941337079,0.0333163928276489,1
828,0.827131986618042,0.577949166297913,9.62835216522217,-0.0217319437720214,-0.0310247198230951,0.0303337293887604,1
829,1.12051594257355,0.294997155666351,9.03316402435303,0.0308256755793415,0.0386506441538341,0.0339258010670593,0
830,0.8664870262146,0.626096963882446,9.88961029052734,0.069962581739305,0.129077076383795,0.0447673093217441,1
831,0.651688098907471,0.747525274753571,9.96105861663818,0.0631492377914196,0.100978355005613,0.0436631502502296,1
832,0.747395098209381,0.729147255420685,9.97487926483154,0.0285015931526782,0.0878521166905601,0.0309208960718794,1
833,0.7203608751297,0.674091339111328,9.95936393737793,0.00486174257052121,0.0783228602570658,0.0210284364805634,1
834,0.740810334682465,0.575711846351624,9.88143539428711,0.00316438517213761,0.0792669841530126,0.0177834766414373,1
835,0.763541579246521,0.541125237941742,9.894775390625,0.0290185751381006,0.0666322280559445,0.0148165622633858,1
836,0.779072105884552,0.593395590782166,9.92681121826172,0.0422029473469176,0.0722971836522742,0.00544555897618297,1
837,0.74791431427002,0.842980563640594,10.0476369857788,0.0126247952504128,0.0663852614767317,0.00571019812594198,1
838,0.695830225944519,0.772416770458221,10.0754461288452,-0.012389770243916,0.0215237386702369,0.0161395353885585,1
839,1.18954372406006,0.892100751399994,9.63220405578613,-0.0268056859287319,0.0260319960201718,0.0277266736127085,1
840,1.25121688842773,1.54081499576569,9.29487609863281,0.00137144655812702,0.166138375127394,0.109882143089967,0
841,2.45419812202454,4.3208065032959,8.42411041259766,-0.0291835870959554,0.42877069984698,0.557862706577636,0
842,4.32019805908203,5.04892683029175,8.48120021820068,-0.142909052387719,1.40084909867647,1.24380901393917,0
843,4.75488758087158,0.125238031148911,9.7175817489624,-0.288416517761515,2.46025458030999,1.67312656062648,0
844,6.40976905822754,0.773886203765869,11.5866460800171,-0.771953927003483,3.22231706097173,1.92530088477192,0
845,10.9162664413452,-1.70260834693909,13.6237478256226,-0.719786396253384,4.54812573698082,1.64607683343455,0
846,2.93499279022217,0.444177329540253,15.4425840377808,0.759461038329921,3.95655030719047,1.74819507964336,0
847,3.52272057533264,-2.59761548042297,22.4012107849121,1.63173957254805,1.96120615522059,2.18534325204189,0
848,6.88302278518677,-3.74654197692871,11.7851896286011,1.62390535156937,1.10159920778516,2.00429876481916,0
849,6.36358833312988,-5.72512531280518,8.64748954772949,1.03371296791212,0.784747752880224,1.65120847853902,0
850,6.35853862762451,-6.68530750274658,9.79733467102051,0.689258580677806,0.320791435290145,1.09827877853805,0
851,6.37697505950928,-5.38958168029785,10.3752679824829,0.388085987348003,-0.240317897682893,0.561865271248457,0
852,6.23301410675049,-4.28650903701782,9.51403331756592,0.282293277914663,-0.808701022672723,0.143425039848922,0
853,5.41086339950562,-2.8169367313385,10.0562610626221,0.234790290458595,-1.26857281680943,-0.1643842507859,0
854,4.7550311088562,-1.97774660587311,8.96301174163818,0.0623513131169398,-1.635523791299,-0.380167743636924,0
855,3.88480424880981,-1.83307123184204,8.98255443572998,-0.138580366996661,-1.86435311164491,-0.573799162409211,0
856,3.47091913223267,-1.39586067199707,9.67876243591309,-0.424163697477251,-2.0824645401838,-0.768609262990453,0
857,3.0701699256897,-0.933391034603119,11.2103805541992,-0.663287633464435,-2.2298529296565,-0.993079254948016,0
858,1.93290877342224,-0.00690217316150665,13.3490734100342,-0.754997380605867,-2.44772866843891,-1.13330354135131,0
859,0.387441337108612,0.0230577662587166,13.4337358474731,-0.708787807267466,-2.61523670731493,-1.15388138762019,0
860,-0.639007210731506,0.259688585996628,13.6071939468384,-0.592050071675633,-2.66461517603442,-1.10529341169127,0
861,-0.872115850448608,0.860127568244934,11.1631469726562,-0.687805360249977,-2.43156594378322,-0.949240427612003,0
862,-2.99583554267883,-0.663305401802063,11.2225351333618,-0.769952694602343,-2.15821655949445,-0.938836589076527,0
863,-3.46123433113098,-0.282463759183884,12.5711765289307,-0.583111504371918,-1.85866819482398,-1.03833521687909,0
864,-4.3381609916687,2.12644720077515,15.1361923217773,-0.802735941305109,-1.77972570852741,-0.983426028365778,0
865,-4.44549989700317,2.74355101585388,13.6932029724121,-1.05500946820115,-1.8512038869207,-0.822472028932441,0
866,-4.17317533493042,3.14541888237,11.7586851119995,-0.913613590655305,-1.67270911012561,-0.698093018382898,0
867,-4.29971694946289,3.96560764312744,10.8798675537109,-0.597625932049932,-1.43177106209338,-0.598536533405657,0
868,-4.16096639633179,3.95745539665222,10.8029193878174,-0.428742670076506,-1.23039893258618,-0.467878887559657,0
869,-4.50709867477417,3.33062767982483,11.1535501480103,-0.215194384973142,-1.11711112244947,-0.330456279912637,0
870,-4.50922775268555,3.18112754821777,10.3834104537964,-0.12580361864041,-1.09091520470301,-0.186398872462876,0
871,-4.91007423400879,3.03307890892029,9.59741115570068,-0.359125841548099,-1.01653424730056,-0.0454258258355366,0
872,-6.54224824905396,1.31001603603363,9.04875469207764,-0.493507452125385,-1.01888255617077,-0.0354309115242528,0
873,-7.31722021102905,0.845647215843201,5.0940113067627,-0.0661379869695178,-0.790239390785049,-0.160759572029004,0
874,-7.71995639801025,2.00262451171875,2.07205748558044,0.318556477213836,-0.17360517974419,-0.284468747630122,0
875,-7.77867937088013,3.23797750473022,4.00127792358398,0.268562651834974,0.368457591297251,-0.209845958555936,0
876,-7.39813804626465,2.47727966308594,6.35105228424072,0.0246575302592035,0.685984956486853,-0.1315951201616,0
877,-6.01762819290161,1.46234953403473,-1.36489570140839,0.489290802592435,2.09883792088172,-0.308035393011369,0
878,3.64766836166382,4.49653816223145,8.84089183807373,0.622258640815538,2.1627219622686,-0.0446048440116816,0
879,6.10585975646973,3.57503461837769,12.0146102905273,0.400200174514555,2.53879652717861,0.146462175335075,0
880,1.50323891639709,-1.66777634620667,2.74577641487122,-0.0557480842566832,3.31010177471958,0.137554941786061,0
881,-3.61789655685425,-6.75354909896851,27.0856380462646,0.624435775006678,3.41002624198044,-0.19676109910632,0
882,-6.9999623298645,6.29791164398193,23.6567935943604,0.663645562314942,0.598135993977709,-0.0925014716439989,0
883,3.04598021507263,0.506783306598663,11.2171764373779,0.433626141856898,0.924744671905455,-0.136739972880605,0
884,-0.643033027648926,2.92996335029602,12.4889974594116,0.171596357333943,0.913266847081377,-0.141075232950604,0
885,-1.32185971736908,0.620045483112335,13.3375473022461,0.0897061345400676,0.422576020703887,-0.0784420533606037,0
886,-0.121465742588043,1.64922618865967,11.387077331543,0.0340301928206012,0.113112449301314,-0.0374976618493979,0
887,0.355777889490128,1.02731311321259,10.3496408462524,-0.0698509370329819,-0.0248859358539753,-0.0254804803255516,0
888,0.692767322063446,0.500527560710907,9.83151817321777,-0.0420135092084397,-0.0201881384164269,-0.0130211953354008,1
889,0.485230445861816,0.571455597877502,10.0260057449341,0.0592683795824152,-0.0565704684012997,-0.00718013145005717,1
890,0.657749652862549,0.815569043159485,9.92921161651611,0.0955432177277897,-0.0709906368214813,-0.00946711739512216,1
891,0.560465812683105,1.01255238056183,10.0745325088501,0.0587511687315866,-0.0611589618014517,-0.0111226766882564,1
892,0.72544527053833,1.00369083881378,9.72910785675049,0.0293750829424943,-0.0585800731151166,-0.0165618659240665,1
893,0.728764414787292,0.864705562591553,9.67921733856201,0.00779780953286037,-0.0465204308166404,-0.0125051048847651,1
894,0.66706371307373,0.838912963867188,9.81394958496094,0.0277581862985447,-0.0279670592711964,-0.0109711344998525,1
895,0.659077823162079,0.825214087963104,9.76331233978271,0.0406935550260339,-0.0260093112972303,-0.00833681045095179,1
896,0.700699090957642,1.13002049922943,9.8697395324707,0.0175469941784221,-0.022210929938829,-0.00493315481903276,1
897,0.71216881275177,1.10161781311035,9.75757122039795,-0.0306230631158461,-0.0334285992945145,-0.00195998513331149,1
898,0.629723012447357,0.858925819396973,10.0047874450684,-0.056171040010869,-0.0295410374097037,0.00487381157965658,1
899,0.572075843811035,0.787960052490234,9.97313022613525,-0.00821991172311087,-0.0336994906310514,0.00546120348714123,1
900,0.596506774425507,0.962629020214081,9.99208641052246,-0.0574958086891829,-0.0545881277991424,0.00429826657783358,1
901,0.767000436782837,0.839458882808685,9.74980735778809,-0.0506893847989425,-0.0932306035385705,0.00813754826491367,1
902,0.791433453559875,0.557104766368866,9.63493824005127,-0.00934574798963101,-0.0446963319175042,0.0054777436940755,1
903,0.699381530284882,0.930379390716553,9.81273460388184,0.00571802116164409,-0.0439270070964184,0.00100703769573361,1
904,0.701030433177948,0.933299839496613,9.86454105377197,-0.0171231031969628,-0.0423952691895133,-0.00300915460965367,1
905,0.888547837734222,0.835153996944427,9.60388851165771,-0.0428782792262804,-0.0432622737659562,-0.00641281024157269,1
906,0.771696150302887,0.757958889007568,9.82185459136963,-0.0201329319192674,0.0119370453421701,-0.00557955447001408,1
907,0.669761598110199,0.851709425449371,9.87787055969238,-0.015041528635281,-0.00512671669601109,0.00036041464090694,1
908,0.687358736991882,1.02286553382874,10.0028657913208,-0.0370803569901501,-0.0106570978730617,0.0019232175156974,1
909,0.718496441841125,0.796723783016205,9.84323787689209,-0.0596267828084911,-0.022829390845351,0.00644756709454148,1
910,0.833471953868866,0.832643568515778,9.61606311798096,-0.0326655245796119,-0.0192855910424044,0.0171178528164856,1
911,0.711749196052551,1.07439017295837,9.90307521820068,-0.0731569103088006,-0.0103332273158864,0.0265246184039984,1
912,0.7646843791008,0.855503261089325,9.89455509185791,-0.0980478375092251,-0.0118013000682791,0.0304294284180567,1
913,0.831041157245636,0.574286639690399,9.66150283813477,-0.0745514163569717,0.00242880421452389,0.0312391833534413,1
914,0.83903694152832,0.766078114509583,9.7432746887207,-0.0487267266217165,0.0528135512127141,0.0384917324993513,1
915,0.763416945934296,0.49418181180954,9.84116268157959,-0.0140723772668714,0.0803025210533762,0.0477773513049953,1
916,0.891663014888763,0.786724805831909,9.795578956604,0.045818267589295,0.0224598169068591,0.0661977333240981,1
917,0.904738485813141,0.831706404685974,9.43318748474121,-0.0491695229260234,0.166554876877126,0.0451448332122088,1
918,0.643933892250061,0.732366263866425,9.75533008575439,-0.0408646672872607,0.164323763739641,0.0354139671618171,1
919,0.762727916240692,0.727020502090454,9.84713935852051,-0.0121398866710717,0.15780610973535,0.0424085766725853,1
920,0.658875703811646,0.568792998790741,9.71462917327881,0.026626771437749,0.143407629433295,0.0409439004908798,1
921,0.601356089115143,0.67992627620697,10.017388343811,0.0611032101885066,0.152710034476185,0.0334812487409086,1
922,0.4947909116745,0.66955703496933,10.1257839202881,0.0498799461139373,0.125215218164693,0.0265635151200758,1
923,0.628112435340881,0.701639533042908,9.99152946472168,0.0321741359883841,0.121071056547664,0.0155333697558347,1
924,0.66273307800293,0.714351058006287,10.030930519104,0.0311638595870787,0.115644624477653,0.0118860863788899,1
925,0.652827024459839,0.80247700214386,10.0777721405029,0.00193327550011314,0.123310883215339,0.0207843598472522,1
926,0.791606903076172,0.940272271633148,9.87796497344971,-0.0119968374698316,0.0862584727718783,0.0346052837326523,1
927,1.31639397144318,1.33227062225342,9.10262298583984,0.0193444968367656,0.186174650943849,0.0835761119548153,0
928,1.32147860527039,4.90967702865601,8.87381458282471,0.056161806332027,0.380850777877502,0.518676687982101,0
929,4.07283687591553,6.45092391967773,8.36887359619141,-0.141564738603717,1.07330671647054,1.52341789205406,0
930,4.61291265487671,-1.73754489421844,9.59148502349854,-0.140960117812485,2.43336943647342,2.03089642041605,0
931,9.60820865631104,-2.30364179611206,11.4394111633301,-0.507680296104082,3.51784884608615,2.11997037044761,0
932,8.88051986694336,-1.11622202396393,14.5626974105835,-0.534907656140725,5.34390436967518,1.79667286728219,0
933,3.23955702781677,-1.02100670337677,16.2946434020996,0.764917988561548,4.48469190297622,1.89554764959939,0
934,2.43734335899353,-2.08399248123169,22.7322292327881,1.84142662361069,2.53225686880581,2.21938710604665,0
935,6.82370233535767,-1.70986390113831,12.0593681335449,1.88265941466201,1.2949273257988,2.2102960061915,0
936,5.92513227462769,-3.22310733795166,6.7967700958252,1.58554078501207,1.07256116452338,2.04440170977801,0
937,5.31200742721558,-4.94727277755737,11.469482421875,1.19693032137689,0.706852354945251,1.655488711043,0
938,5.66746091842651,-5.76307773590088,12.6898794174194,0.675290700234504,-0.102867152074481,1.10693864603369,0
939,5.2120566368103,-6.06105804443359,10.1639938354492,0.0645539928485983,-0.805330725734201,0.472249301356045,0
940,4.33900737762451,-5.58021926879883,8.49379634857178,-0.387328451175929,-1.20808470528657,-0.175109865760085,0
941,2.98818182945251,-4.20254564285278,9.96221160888672,-0.803325831486562,-1.56639358888078,-0.77567542831076,0
942,2.09470820426941,-2.07033228874207,9.76736450195312,-1.02923945649203,-1.91710394125277,-1.2806135007299,0
943,1.22419762611389,0.920118868350983,9.20665168762207,-1.14664824209954,-2.06042621637313,-1.54736290604718,0
944,0.708949565887451,2.63888740539551,10.2225475311279,-1.14464168337622,-2.10494348399684,-1.53135890579246,0
945,-0.517709851264954,2.71811056137085,13.4825601577759,-1.03673778627823,-2.26710429487814,-1.37559554048174,0
946,-1.47432196140289,1.63300728797913,11.5906171798706,-0.936345002139676,-2.43474522549256,-1.2258523839732,0
947,-2.30975103378296,0.303732842206955,10.1885843276978,-0.865057506080435,-2.33587803318446,-1.15850756474977,0
948,-2.7638885974884,-0.965202808380127,11.8541278839111,-0.550401095124965,-2.17809226334193,-1.17101243764823,0
949,-2.78754878044128,0.526212632656097,12.7769804000854,-0.291844738453746,-2.06243903352501,-1.1430919899379,0
950,-3.17336177825928,1.15982508659363,11.6187114715576,-0.318174380176437,-1.99299710810119,-0.993398101909526,0
951,-2.74229741096497,1.19023561477661,11.5277624130249,-0.474913261394451,-1.93050989470606,-0.831723717401322,0
952,-2.00822496414185,1.61798942089081,11.3158502578735,-0.692564762013085,-1.78437305778765,-0.706591964369668,0
953,-2.09521389007568,1.50028622150421,11.814845085144,-0.908942605840388,-1.73515011767583,-0.642824569438538,0
954,-1.7188618183136,1.94250500202179,10.4843759536743,-0.814673361154308,-1.66139134128305,-0.594640661626007,0
955,-1.68083477020264,2.79655981063843,10.065092086792,-0.613313415609098,-1.39680575435146,-0.481259774009192,0
956,-2.39228081703186,2.40481090545654,12.2768268585205,-0.421103392489614,-1.26520405118854,-0.34954751637152,0
957,-3.36779379844666,1.67270886898041,12.0247764587402,-0.310042118182258,-1.29859063703626,-0.335106092596889,0
958,-4.0120997428894,1.14319360256195,10.061074256897,-0.110716444880462,-1.17031855102621,-0.397305151962071,0
959,-5.11181449890137,1.2048887014389,8.71639633178711,0.214186877843252,-0.883580590410263,-0.45114175234635,0
960,-6.26535654067993,1.76792466640472,9.38983535766602,0.328702455176766,-0.655959612829946,-0.456238376882489,0
961,-7.50392198562622,2.30676770210266,9.90805912017822,0.0522613863725782,-0.658468243997773,-0.406313893560509,0
962,-8.12984275817871,1.94037258625031,7.67803525924683,-0.292227168386282,-0.675607816141305,-0.368369706981278,0
963,-7.90754222869873,2.16354656219482,3.93243598937988,-0.260309482327305,-0.322308172109972,-0.362209182879166,0
964,-8.40309810638428,1.95467340946198,-0.151139602065086,-0.0935843212656035,0.573964078659714,-0.43983972944373,0
965,-12.2776823043823,4.64688873291016,1.49488198757172,0.747306038219663,1.91876402271827,-0.382032355874143,0
966,2.08488941192627,5.0185694694519,9.38028621673584,0.643213058062554,1.68504247544988,-0.0294927509701892,0
967,9.3242654800415,4.93157482147217,10.2312755584717,0.359697555655112,2.56818264559487,0.265579378781867,0
968,-0.818019151687622,-8.19344425201416,11.4966220855713,0.164586101751771,3.29664508804751,0.0412971063916407,0
969,-8.35294914245605,-0.555737495422363,30.3459854125977,1.17206425312076,1.57108514661512,-0.356099724890956,0
970,1.46285974979401,6.87450122833252,11.6700792312622,0.464196201825268,0.371622791542323,-0.118290475020647,0
971,0.621307134628296,1.30578792095184,12.0882091522217,0.104025460701098,0.818987415804127,-0.165674302662691,0
972,-0.884388446807861,1.82409644126892,13.6954965591431,-0.182693233608842,0.408484669454546,-0.0859434041701651,0
973,0.248118862509727,0.969633460044861,11.2315330505371,-0.131553516591946,0.0736159144450541,-0.0490465847522027,0
974,0.73851215839386,0.663344085216522,10.2839431762695,-0.180893352830869,-0.0268921928910782,-0.0280587115439926,0
975,0.837073922157288,0.702238321304321,10.1762828826904,-0.138841373428246,-0.0639477450323878,-0.0201394192132353,1
976,1.09601652622223,0.0730382725596428,9.56552219390869,-0.0639463884847075,-0.0297046491273916,-0.016215865122411,1
977,0.875409483909607,0.52386075258255,9.74806880950928,0.0446651562879935,-0.0505170574704683,-0.0229771317874178,1
978,0.959944009780884,0.959626376628876,10.0164842605591,0.0272087948910128,-0.0242019861517725,-0.0245316667693729,1
979,1.09043622016907,1.15016543865204,9.58162593841553,-0.0389688170026929,-0.0248783333613009,-0.0166955233212749,1
980,1.0233291387558,0.606739699840546,9.72598075866699,-0.0614220321828811,0.015272528731521,-0.0141394306696925,1
981,0.951785564422607,0.66475772857666,9.74227142333984,-0.0396331009247212,0.0208002285422788,-0.0170904732318255,1
982,1.03760468959808,0.62882137298584,9.57755565643311,-0.0127420263532413,0.0457214741672382,-0.0189038310613308,1
983,0.759078621864319,0.9278923869133,10.3527593612671,-0.0130120303161806,0.0280619406268143,-0.00849438636370041,0
984,0.970396041870117,0.84429919719696,9.70200538635254,-0.0495622809301613,-0.00211634766929588,0.00223224602124491,1
985,0.952014446258545,0.53101247549057,9.76763820648193,-0.0339234541563486,-0.0045563118031514,-0.000768214043642901,1
986,0.877247214317322,0.546419441699982,9.97721767425537,-0.003661589025277,-0.0104304555822149,-0.00104134683075156,1
987,0.860188007354736,0.960114300251007,10.1478242874146,-0.0300421569418833,-0.0321834091985235,0.00347484447658523,1
988,1.13355553150177,0.343745559453964,9.56923007965088,-0.0195115665026815,-0.0240102135861515,0.00417444077034088,1
989,0.876367330551147,0.745856523513794,9.79036521911621,0.0105803218516672,-0.0141599942264377,-0.000548724381906368,1
990,0.783480942249298,0.763049423694611,10.132399559021,-0.000587168568657883,-0.0371317643215671,0.00101217851990132,1
991,1.07017552852631,0.634964048862457,9.66778659820557,0.00676629754275352,-0.0698878218140795,0.00742856640891008,1
992,0.947374820709229,0.629998862743378,9.88455390930176,0.014774990942948,-0.0451192210926628,0.00587447979509165,1
993,0.946501016616821,0.672800540924072,9.80237865447998,0.0181681390519802,-0.052359469763288,0.00485011932877924,1
994,1.01342368125916,0.748317539691925,9.83264923095703,0.00390980032021024,-0.0574164589722662,0.00580675488036282,1
995,1.07830107212067,0.586260974407196,9.67431449890137,0.0149824106202705,-0.0359491543500038,0.00653786646069793,1
996,0.987709820270538,0.696826636791229,9.76764106750488,0.0298498205351254,-0.0379540652423995,0.0102964600883838,1
997,1.07168221473694,0.716383159160614,9.56011199951172,0.0167604513967105,-0.0291921300173897,0.00284878393820641,1
998,1.36904883384705,0.493121325969696,9.17304706573486,0.0203690710841734,0.0546698161043913,-0.00586833267834115,0
999,0.829155623912811,0.663323998451233,10.0734691619873,0.0473171362626836,0.0587480353561166,0.000220719049326413,1
1000,1.0316104888916,0.737564086914062,9.8018274307251,0.043380851013492,0.0469072175142716,0.00552937572970941,1
1001,1.09289145469666,0.957773387432098,9.68160247802734,0.0037701052975423,0.0924099837381762,0.0117901980154848,1
1002,1.04120790958405,0.939593553543091,9.82865619659424,-0.0472987021945132,0.102189136228082,0.0110090221275481,1
1003,1.08304274082184,0.509964168071747,9.8362865447998,-0.0587211166231608,0.132842827777059,0.0136388749786499,1
1004,0.783288478851318,0.522604405879974,10.085072517395,-0.0291324606448097,0.121056983405778,0.0208827053928818,1
1005,0.87858372926712,0.711313128471375,9.91368865966797,0.00380609100169767,0.079168638607383,0.0394754126598641,1
1006,0.91713148355484,0.747420191764832,9.89672660827637,-0.0646927227354454,0.127114667877921,0.0212953164307083,1
1007,1.10278427600861,0.503681123256683,9.51330757141113,-0.0264856197387856,0.127778693806219,0.0131458042266867,1
1008,0.904776692390442,0.614881753921509,9.94403457641602,0.0166310467348678,0.175216458782715,0.0228473900692497,1
1009,0.777649164199829,0.606489658355713,9.88219451904297,0.0542773368999301,0.127129390165322,0.0326151284171714,1
1010,0.770150899887085,0.726409733295441,9.95792961120605,0.0527887380414951,0.0941820095156229,0.0170554953156803,1
1011,0.889140486717224,0.678455710411072,9.90556335449219,0.0167792329241793,0.113362095686374,0.00834251128016024,1
1012,0.690174520015717,0.663668692111969,9.99928569793701,0.00796723287141929,0.108356093528703,0.00631100154622871,1
1013,0.723100125789642,0.615521371364594,10.0243473052979,0.01859572204856,0.075183168101809,0.00588252701486208,1
1014,0.76607882976532,0.656920850276947,10.1384258270264,0.0182380990454598,0.0387299938707509,0.019963844076588,1
1015,0.590309619903564,0.974406957626343,10.3027429580688,-0.00693493649714764,-0.0133466294594193,0.0497771189675358,0
1016,0.565707862377167,1.06998157501221,10.2724504470825,-0.133737233784405,-0.107330951278969,0.0465797776970571,0
1017,1.42015075683594,0.569473206996918,9.27183437347412,-0.170753233822338,-0.0428478942227183,0.0241042002860907,0
1018,2.13572192192078,0.78578382730484,8.72032070159912,-0.0943983081304078,0.212819694163389,0.0387543826006711,0
1019,3.19935154914856,2.36948323249817,8.07494163513184,0.0407769619024238,0.703787722320842,0.25013976894116,0
1020,2.82664465904236,4.49302339553833,9.29237651824951,-0.0930953149551945,1.64557575967545,0.740419902589046,0
1021,3.60026288032532,1.38863372802734,9.38034534454346,-0.176575686268821,2.42112768389066,1.37254142734364,0
1022,8.95726776123047,-1.44359421730042,11.1742715835571,-0.516267426012447,3.50854083176021,1.65945056263865,0
1023,11.8476066589355,-1.39355802536011,14.0025568008423,-0.655066788074496,5.48821148176665,1.41203743789006,0
1024,6.13830661773682,1.30522418022156,17.0370025634766,-0.103054796740413,5.30486668915236,1.45455387258679,0
1025,-0.202331811189651,-3.50612711906433,25.3127956390381,1.17238676192877,3.08582446246688,2.02226325111034,0
1026,7.39444065093994,-0.960505485534668,14.4286699295044,2.07489996426549,1.01309038053693,2.16399748327269,0
1027,5.70338869094849,-0.0739365667104721,7.05308151245117,1.82098406592519,0.619463719830527,2.3648052889449,0
1028,5.46584796905518,-2.95652961730957,8.8691873550415,1.63345558039644,0.296447413186703,2.32662035260312,0
1029,5.14775085449219,-4.56131267547607,11.5730695724487,1.30180640405253,-0.419079689666777,1.98615544726078,0
1030,5.11317253112793,-5.98445463180542,8.15320491790771,0.724029943713344,-1.03677227421435,1.42919032583904,0
1031,4.55347347259521,-6.76915216445923,8.82271575927734,0.127192032707588,-1.43551120552829,0.74661101975418,0
1032,4.10433006286621,-6.11865091323853,7.89542818069458,-0.422996633708551,-1.83605209821481,0.00646638347196992,0
1033,3.18736553192139,-4.36537075042725,7.65289735794067,-0.906698959201023,-2.02603268931724,-0.655913606722114,0
1034,2.45414590835571,-1.43506157398224,10.0137624740601,-1.32774066622189,-2.15517163426211,-1.11538925564668,0
1035,1.45381224155426,1.26325392723083,13.528434753418,-1.70459047732522,-2.42717066272016,-1.31805461617922,0
1036,0.573527216911316,2.64557719230652,14.6196737289429,-1.83750778206664,-2.82650128184929,-1.33775987771693,0
1037,-0.239671617746353,4.3760404586792,11.8282918930054,-1.6642518426099,-2.94700292958876,-1.1777049614676,0
1038,-0.57421201467514,4.767991065979,10.8160572052002,-1.3694921078955,-2.72938218848071,-0.841989604192332,0
1039,-1.26376092433929,4.23300790786743,11.984393119812,-0.931732540289713,-2.50087843957806,-0.488900582913711,0
1040,-1.98191893100739,3.22660064697266,10.7438402175903,-0.716879289607454,-2.12728407659124,-0.192854075339606,0
1041,-2.1778302192688,1.26049196720123,11.3177824020386,-0.405632590374639,-1.80295180218426,0.00287504936445732,0
1042,-2.15268492698669,1.89148616790771,12.9364442825317,-0.159036706540805,-1.43291488978157,0.185023749234014,0
1043,-2.80001020431519,2.32572484016418,14.6235361099243,-0.737151005509028,-1.38127712835132,0.427106357323735,0
1044,-3.597895860672,0.568889319896698,15.8621892929077,-1.23625935172296,-1.45550235740902,0.552694076823524,0
