time_index,acc_x,acc_y,acc_z,gyro_x,gyro_y,gyro_z,is_zero_vel
0,-0.290582060813904,1.48906445503235,9.68284034729004,-0.0111515095682457,0.0103150127504464,-0.00152905237942304,1
1,-0.291632622480392,1.48586940765381,9.69003009796143,-0.0112587954288785,0.0108380315811055,-0.00204939023390073,1
2,-0.283811390399933,1.49667131900787,9.68486976623535,-0.00999080617724293,0.00820214292506435,-0.000741392513466129,1
3,-0.283135443925858,1.49036645889282,9.69332695007324,-0.0106942011165925,0.00456726405313435,0.000215242989353519,1
4,-0.274702787399292,1.50134551525116,9.65872478485107,-0.00929020443614604,0.00491996697015037,-0.000314147483471899,1
5,-0.257190108299255,1.48101115226746,9.6363697052002,-0.0110980892615517,0.00776562221422459,-0.000878182505921552,1
6,-0.28180393576622,1.48901224136353,9.68251132965088,-0.0133569127982378,0.0130081208789242,-0.00192288214985505,1
7,-0.282104641199112,1.49293780326843,9.67337322235107,-0.0117822615873769,0.0107081702287478,-0.00215086525388548,1
8,-0.296224415302277,1.49643528461456,9.68578910827637,-0.0113423895587826,0.00811787988399586,-0.00130106901531829,1
9,-0.275984615087509,1.49136245250702,9.68436050415039,-0.0124020634371197,0.00862748824215013,-0.00115332690291707,1
10,-0.279988408088684,1.47713434696198,9.69253635406494,-0.0123151164290151,0.00778462116382932,-0.0010098315441721,1
11,-0.273755729198456,1.48962771892548,9.67423248291016,-0.0117885210562359,0.00906713972771668,-0.00125189611246633,1
12,-0.266743928194046,1.46308755874634,9.64948463439941,-0.0123815019609691,0.00954433866376145,-0.00170987425550697,1
13,-0.277371287345886,1.49438989162445,9.68703269958496,-0.0116800045238963,0.0113173548042385,-0.00271020645491387,1
14,-0.290653854608536,1.47864627838135,9.68376541137695,-0.0118229413730278,0.0104855518078605,-0.00119624137720734,1
15,-0.267762571573257,1.48411989212036,9.64246273040771,-0.0129016142009697,0.0107678479237062,-0.00367544708569545,1
16,-0.239144861698151,1.47770464420319,9.63216114044189,-0.0165837673031405,0.0165876788209916,-0.00588442555743606,1
17,-0.198047921061516,1.41670966148376,9.5680456161499,-0.0132355444330439,0.035010065492993,-0.0117129736259536,1
18,-0.265251994132996,1.5388993024826,9.55483150482178,-0.0169257452751338,0.0402758090807306,-0.0158555643940585,1
19,-0.235987469553947,1.52754378318787,9.66217803955078,-0.0344965456169877,0.0504914661568683,-0.015800133192682,1
20,-0.410059928894043,1.45783066749573,9.8289270401001,-0.0260864202137611,0.0430113831853247,-0.0120627704724598,1
21,-0.293383359909058,1.46166443824768,9.6813907623291,-0.0199293082867956,0.0273820147945711,-0.00724248999115976,1
22,-0.409613728523254,1.45952391624451,9.75989437103271,-0.0158714320487878,0.0210876647670878,-0.006036190889611,1
23,-0.345777243375778,1.48582983016968,9.72992706298828,-0.0147082725158577,0.0165233093852065,-0.00383436524203644,1
24,-0.309700727462769,1.43359923362732,9.71420669555664,-0.0168177863421474,0.00662291232548528,-0.00206593031079783,1
25,-0.275371164083481,1.45022666454315,9.64595508575439,-0.0122590173567715,0.00808792920455683,-0.000554312208820518,1
26,-0.304949313402176,1.46299493312836,9.67729759216309,-0.0108283100028294,0.0104459903418079,-0.00140097942816261,1
27,-0.34959214925766,1.47634065151215,9.71094036102295,-0.00912938695700808,0.010000752459736,-0.000748768481403213,1
28,-0.357370406389236,1.51795697212219,9.72076416015625,-0.0124751516045829,0.00561766264073744,-0.000418639755740493,1
29,-0.289629876613617,1.47323656082153,9.65548038482666,-0.0106727429041686,0.00565007206284694,-0.00127000066646669,1
30,-0.322366416454315,1.48223042488098,9.67380237579346,-0.0179867569757998,0.00220707888886933,0.00206403046785222,1
31,-0.309477508068085,1.48052716255188,9.63644504547119,-0.0201257767544324,0.00369299273997094,-0.000558335428594246,1
32,-0.275199592113495,1.48491704463959,9.64834308624268,-0.0259663948723826,0.0138307578157847,-0.00354200945129189,1
33,-0.310130685567856,1.49761021137238,9.63200950622559,-0.0324060286597081,0.0144173679398478,-0.0043395042229121,1
34,-0.294289231300354,1.4791271686554,9.63196468353271,-0.0369951982531057,0.0210334652777155,-0.00569332242312821,1
35,-0.334245175123215,1.4459000825882,9.70796394348145,-0.0361755771381201,0.0219116468083583,-0.00279190074187233,1
36,-0.322636693716049,1.45821750164032,9.6954345703125,-0.0467537736624018,0.0170414117708219,-0.00229056118681356,1
37,-0.332178950309753,1.48571836948395,9.69848251342773,-0.0438545815983358,0.00914693261128358,-0.00324317312851193,1
38,-0.313662320375443,1.48271358013153,9.65403175354004,-0.0512571124866985,0.00901930789812264,-0.00487973503248741,1
39,-0.319693088531494,1.41448640823364,9.68118476867676,-0.050982636285663,0.0217184178265163,-0.00751472903284986,1
40,-0.30969899892807,1.43545699119568,9.67566013336182,-0.0494035190784897,0.0264175572475827,-0.00822214888245627,1
41,-0.252354711294174,1.43459892272949,9.59847068786621,-0.0495751722943129,0.033009621637207,-0.0117755558309759,1
42,-0.226425126194954,1.46163165569305,9.52832126617432,-0.061236746911228,0.0678085920825137,-0.0227513872731415,1
43,-0.400229394435883,1.34531617164612,9.76568412780762,-0.0575324729272527,0.066368275502404,-0.0258434691821294,1
44,-0.353665739297867,1.36388397216797,9.75145435333252,-0.0452792562682306,0.0557385509722186,-0.0199071832438019,1
45,-0.416624367237091,1.39016652107239,9.75605869293213,-0.0369089159949763,0.045266959954135,-0.0165144803820145,1
46,-0.390662789344788,1.43138122558594,9.70591831207275,-0.0367151335749702,0.0377485524300294,-0.0153828335349207,1
47,-0.338807642459869,1.36807322502136,9.65499973297119,-0.0360785631730356,0.039272458978854,-0.0152306203547578,1
48,-0.229178339242935,1.4197633266449,9.49204921722412,-0.0375767785397193,0.0672862463242083,-0.0238434705735882,1
49,-0.392598450183868,1.3982982635498,9.7081127166748,-0.0461406806899519,0.088994937370962,-0.0314677241868621,1
50,-0.466901242733002,1.31086182594299,9.80086612701416,-0.0349049018388539,0.0723224254259811,-0.0282571773824469,1
51,-0.523503482341766,1.35904920101166,9.83592987060547,-0.0225392706535059,0.0551059004105134,-0.0215924711129015,1
52,-0.544009923934937,1.40836024284363,9.86339092254639,-0.0234618208640284,0.0203756644884659,-0.012415586261733,1
53,-0.589505255222321,1.41930675506592,9.92100048065186,-0.0297331449510555,-0.0154833012870439,-0.00159197112062212,1
54,-0.568926215171814,1.31496918201447,9.93557643890381,-0.0267075692485085,-0.064450637231168,0.0131938607604977,1
55,-0.364842921495438,1.37572860717773,9.57961177825928,-0.0189433977288699,-0.075704298792867,0.0186524952334546,1
56,-0.23154990375042,1.4018919467926,9.44149208068848,-0.0392041697028395,-0.0586562852953742,0.0145928255229001,1
57,-0.379947036504745,1.40589284896851,9.70050239562988,-0.0466712947312042,-0.0282938353787329,0.00882842686728851,1
58,-0.417423248291016,1.3149938583374,9.77398014068604,-0.0417564683901658,-0.0446337476318874,0.0148921096936681,1
59,-0.465511649847031,1.29192304611206,9.83408546447754,-0.0331194853545511,-0.0531138392703773,0.0226482376345768,1
60,-0.480746537446976,1.212198138237,9.91602897644043,-0.00960770525294853,-0.098235740168887,0.0381669641656053,1
61,-0.150412634015083,1.20650255680084,9.45431232452393,0.0153056091453895,-0.0961827675411938,0.0417089725765999,1
62,-0.137961819767952,1.24449646472931,9.46112155914307,0.0357942624042912,-0.0555481141483319,0.0350463885135481,1
63,-0.139204308390617,1.35259604454041,9.50699520111084,0.0382981664611837,-0.00222015464571756,0.0217065730014492,1
64,-0.347956985235214,1.33687722682953,9.72824954986572,0.0382548027084967,0.00256671122620606,0.0174627342582455,1
65,-0.431135267019272,1.36751782894135,9.80785655975342,0.042272443367801,-0.0191532735481195,0.0244392425959795,1
66,-0.260508626699448,1.46775603294373,9.66036128997803,0.0354456962294919,-0.0336286422236768,0.0269665075690591,1
67,-0.141216471791267,1.56186556816101,9.39614582061768,-0.00594432795661143,-0.0126955375474626,0.0175237518561273,0
68,0.0189848709851503,1.49132525920868,9.20111179351807,-0.0429636668287311,0.0457147788138102,0.000698813274981048,0
69,-0.138952121138573,1.4527302980423,9.46102619171143,-0.0817612758628456,0.126298816800354,-0.0197265876323809,1
70,-0.417705059051514,1.48982119560242,9.78564071655273,-0.0994360268721857,0.10283822348714,-0.0174174761241736,1
71,-0.359947174787521,1.3217191696167,9.7868185043335,-0.088566143468324,0.103944508926338,-0.0191990986442203,1
72,-0.34684494137764,1.28877460956573,9.74992847442627,-0.0666830902715758,0.0976838000329681,-0.016194859439313,1
73,-0.359226286411285,1.32374596595764,9.72108840942383,-0.0526303839863655,0.109179284944025,-0.0164641903298987,1
74,-0.308408617973328,1.35696089267731,9.61823654174805,-0.0391597032350136,0.124917285340118,-0.0191847903951449,1
75,-0.423044681549072,1.25584995746613,9.76888465881348,-0.0300975902238544,0.128824067757859,-0.026369616186772,1
76,-0.483185976743698,1.29425084590912,9.82334613800049,-0.013918824183785,0.10196854326604,-0.0202549733568149,1
77,-0.585838496685028,1.28671205043793,9.90030097961426,-0.00719734160845316,0.0741031564112409,-0.0124056410195372,1
78,-0.519149959087372,1.20594787597656,9.84978103637695,0.00989894168379741,0.0448199358815975,-0.00327558203047278,1
79,-0.468151360750198,1.30510568618774,9.75634384155273,0.0229785882036389,0.0348728294730698,0.00354256913123973,1
80,-0.498399049043655,1.17033863067627,9.76798439025879,0.0409966394028417,0.0228791253787083,0.00709396726567145,1
81,-0.457049608230591,1.22218179702759,9.69502353668213,0.0770236953759195,0.0142456002913215,0.0158821647960403,1
82,-0.498833626508713,1.33937776088715,9.77781009674072,0.0903524504471162,0.00375859466798314,0.0220795091808174,1
83,-0.481188595294952,1.41194999217987,9.7376070022583,0.0944513300032356,-0.0171199760632766,0.028109996120328,1
84,-0.515056610107422,1.42716133594513,9.7976245880127,0.0764542948901038,-0.0240651995402833,0.0216013011563908,1
85,-0.494127660989761,1.4729630947113,9.76300716400146,0.0680931217166643,-0.0437157934548399,0.0231004028563748,1
86,-0.436840415000916,1.50938057899475,9.6457633972168,0.0495046692656423,-0.0599195848867776,0.0207564216229416,1
87,-0.302059054374695,1.5280818939209,9.50627326965332,0.0289247049514591,-0.0349516215906334,0.0118994958110973,1
88,-0.339027166366577,1.44622659683228,9.62921905517578,0.0181073461583153,-0.00805138408052794,0.0054317006556902,1
89,-0.476217836141586,1.48597598075867,9.76667785644531,0.0147182156774589,-0.0126588805914739,0.00597595455500207,1
90,-0.468060374259949,1.48059749603271,9.73351097106934,0.00565990703352882,-0.026559597360441,0.00773433059156481,1
91,-0.484210014343262,1.39353466033936,9.78195095062256,0.0114077670426521,-0.054035605096735,0.0136770944611845,1
92,-0.270160019397736,1.43738412857056,9.58064937591553,0.0124996287597737,-0.0499102270877693,0.0117758928873013,1
93,-0.193306416273117,1.506875872612,9.42261219024658,0.00490175136441315,-0.0207849174466054,0.000360638207298743,1
94,-0.319924831390381,1.43988060951233,9.61318969726562,-0.0042617214538047,0.0296473162625493,-0.0112701939664035,1
95,-0.399716049432755,1.42860209941864,9.67365646362305,7.35357716314827e-05,0.0295649538446494,-0.0118728964494129,1
96,-0.434705197811127,1.43285095691681,9.73055744171143,0.00614850658769319,0.0192510614943959,-0.00611956135559539,1
97,-0.445220738649368,1.42520821094513,9.76655387878418,0.0171285814025489,0.00820035569430155,0.0017703345141099,1
98,-0.385170787572861,1.50982809066772,9.66296768188477,0.0174904477783391,-0.000414169533220322,0.00192344091954275,1
99,-0.341965436935425,1.43852531909943,9.59787940979004,0.0137459350947684,0.0116393257785426,-0.00548567856173744,1
100,-0.270378202199936,1.44670069217682,9.54644298553467,0.0193049280886319,0.0293247928903785,-0.0105804342037757,1
101,-0.351178914308548,1.42408430576324,9.66615772247314,0.0194741241222306,0.0468924619373569,-0.0135433205506784,1
102,-0.43513959646225,1.49064040184021,9.71499156951904,0.0297753935050361,0.0556917251101144,-0.0161076856463968,1
103,-0.492971748113632,1.49405121803284,9.76585292816162,0.0281758219723342,0.0406496336739936,-0.00974784682323284,1
104,-0.403950452804565,1.44031548500061,9.6865062713623,0.0297776301442328,0.0292452205498393,-0.00834642175771399,1
105,-0.430341154336929,1.47674989700317,9.70480537414551,0.0364673722086196,0.016602208653392,-0.00674271608353871,1
106,-0.295659482479095,1.55139589309692,9.54783725738525,0.0295009214651898,0.0383643252083262,-0.0152055887211056,1
107,-0.380371332168579,1.49762487411499,9.55370616912842,0.0273150737438584,0.0692930463965023,-0.0266304540901939,1
108,-0.511042773723602,1.51802349090576,9.69867610931396,0.0271964964963226,0.0626601815467401,-0.0216858981328929,1
109,-0.401336371898651,1.49404621124268,9.70039176940918,0.032789688223653,0.0649435966713201,-0.0172268156363673,1
110,-0.468761444091797,1.6143274307251,9.6809253692627,0.0296933619016778,0.0559990538999095,-0.0134823029527966,1
111,-0.442083239555359,1.53405475616455,9.63334846496582,0.0214667470229092,0.0603888505156064,-0.0178881908871424,1
112,-0.524957656860352,1.55438756942749,9.69867610931396,0.0158632750776521,0.0493274192503407,-0.020806599322949,1
113,-0.413523077964783,1.51331734657288,9.60013484954834,0.0187813464571332,0.0527336355740657,-0.0257284643155247,1
114,-0.411963284015656,1.49815893173218,9.60881519317627,0.0239325366672945,0.0637750640028314,-0.0230032827809656,1
115,-0.459697902202606,1.52522885799408,9.6566801071167,0.0317939406144508,0.0821869571959595,-0.024228807096782,1
116,-0.508865833282471,1.63087451457977,9.69729137420654,0.0309394487339421,0.0959075215201557,-0.0266284421552141,1
117,-0.540804266929626,1.58141314983368,9.67161273956299,0.0206463394431642,0.082075961635152,-0.0220877712219804,1
118,-0.514851331710815,1.55228400230408,9.71276664733887,0.0241605261431459,0.0774272475048506,-0.0114409608489264,1
119,-0.477467238903046,1.63050854206085,9.62871932983398,0.0282346091728031,0.0882927699824274,-0.00123490935791569,1
120,-0.492675244808197,1.65119123458862,9.6289234161377,0.0147327486307513,0.103363698459727,-0.00699863962251152,1
121,-0.514847278594971,1.57444941997528,9.70634460449219,0.00736106463795228,0.115507812899029,-0.0157894046066187,1
122,-0.508763372898102,1.48871731758118,9.68157005310059,0.0107679633967066,0.130069378528337,-0.0239609284612283,1
123,-0.547297477722168,1.50387370586395,9.68745136260986,0.0197387653525843,0.149337623653548,-0.0262902664698553,1
124,-0.513710856437683,1.5265303850174,9.62701034545898,0.0284066077673302,0.174358171897653,-0.0273740918903281,1
125,-0.570425748825073,1.61058855056763,9.63097667694092,0.0281075493410765,0.188259556537487,-0.0286197293141584,1
126,-0.565532565116882,1.6494345664978,9.51824378967285,0.0130353953935569,0.224333504951697,-0.0413961884677593,1
127,-0.449810028076172,1.70782232284546,9.4123592376709,-0.0114072188059746,0.285209639045382,-0.0737810387550175,1
128,-0.450610369443893,1.58998072147369,9.42469024658203,-0.0419361360563944,0.36909298824383,-0.126547114960112,0
129,-0.462911546230316,1.44101941585541,9.44286441802979,-0.0528339243950532,0.448306983813528,-0.212803731841605,0
130,-0.585595846176147,1.34388792514801,9.61695861816406,-0.0525738417474717,0.518119155207893,-0.364235981626771,0
131,0.483808577060699,0.521770656108856,9.34676647186279,-0.0241989006299783,0.704166357248824,-0.687283713571458,0
132,2.11371254920959,0.848061263561249,9.43940448760986,0.104377414083908,1.20002797719881,-1.19212997351202,0
133,2.25362253189087,2.72191214561462,8.82603454589844,-0.091501329818998,2.34911740591157,-1.44968574727218,0
134,1.01682150363922,1.58557498455048,10.7978277206421,-0.0902758928881549,2.8634041724423,-1.68034585770947,0
135,2.83852553367615,0.118705868721008,12.3210649490356,-0.0107122471538697,3.20064638654954,-1.92463256449637,0
136,5.06765937805176,-0.772056519985199,15.9232215881348,-0.0372450776647607,3.08205422531165,-2.1162509996692,0
137,2.92302703857422,2.2892735004425,18.9841613769531,-0.533080294869253,1.86461396827369,-2.15542796351703,0
138,0.222369775176048,5.15028238296509,18.5253791809082,-0.675605818770487,0.0661171851846908,-1.9535654128951,0
139,5.15431928634644,5.15106868743896,9.95188617706299,-0.549951154058796,-1.2461942741695,-1.49618613780162,0
140,4.44039535522461,4.68065881729126,5.43119096755981,-0.348149989299988,-1.29206589236557,-1.09219638492442,0
141,4.89202976226807,4.26372766494751,4.56194877624512,-0.0664960656228358,-1.15466981646091,-0.704070816344718,0
142,4.46380138397217,4.1066689491272,7.07510280609131,0.205756491609794,-1.10298065602162,-0.357883077425414,0
143,3.89191603660583,3.78675365447998,9.63173866271973,0.290358561407428,-1.26730954634636,-0.0458101074972674,0
144,3.39847087860107,2.20142388343811,11.5699129104614,0.414110197783175,-1.54074654863499,0.152895107527189,0
145,2.71923232078552,1.34365487098694,12.4003496170044,0.538415904823714,-1.8598558315121,0.210038837997885,0
146,1.3385351896286,1.95647478103638,14.5307083129883,0.63342527526624,-2.10270882552615,0.221507691298041,0
147,0.0491784065961838,3.61901092529297,13.4009466171265,0.653561968900547,-2.43614711349038,0.38134449465409,0
148,-1.38536417484283,4.67968082427979,11.8238315582275,0.62997981060595,-2.4662831780696,0.646190205845153,0
149,-2.57371258735657,5.12542486190796,9.45846652984619,0.672746582445151,-2.35013446713187,1.00091960119721,0
150,-3.06041622161865,4.3128981590271,5.85483360290527,0.63204089755259,-1.93593089226297,1.30056470519428,0
151,-3.08171558380127,2.89391112327576,4.08012533187866,0.578822749752454,-1.22610844691201,1.43943843602977,0
152,-3.11665606498718,1.64668607711792,7.01497936248779,0.640516407721767,-0.528406879919841,1.47784002052623,0
153,-2.78920769691467,0.877791464328766,11.0302362442017,0.617893053998625,-0.150990214978483,1.48241093706318,0
154,-3.41158652305603,0.709574162960052,16.9049510955811,0.390351471908306,-0.13361928071525,1.43365511540656,0
155,-3.84886002540588,0.14320033788681,18.6050434112549,0.300619454771394,-0.833434798401698,1.39876730565236,0
156,-3.64455604553223,-0.534257292747498,13.833703994751,0.185155708866027,-1.24957529033141,1.2588612004203,0
157,-3.88821077346802,-1.24629855155945,9.25914859771729,0.0526323688736154,-1.29465035704544,1.02171842325754,0
158,-4.34988212585449,-1.32589471340179,6.51990509033203,0.0378073000992009,-0.978382733630468,0.714198485075153,0
159,-5.03013849258423,-0.893510341644287,5.68297958374023,0.179523272963321,-0.611019967857349,0.449043780618612,0
160,-5.59641027450562,-0.00184264220297337,6.03202104568481,0.42942400655189,-0.171193604153339,0.26531426109535,0
161,-6.20632028579712,1.26802027225494,7.99623394012451,0.45002785193091,0.132520152521482,0.241335774496278,0
162,-7.07918262481689,1.923459649086,12.1809720993042,0.167575699812467,0.0639577943043136,0.353038820692073,0
163,-8.22692966461182,1.60745191574097,13.9008674621582,0.0445538694439418,-0.446699632937611,0.521466315934445,0
164,-7.3240909576416,-0.21711853146553,8.5675573348999,-0.0965152548809118,-0.692672553458206,0.569995569161332,0
165,-7.0020899772644,-2.40880870819092,5.11694383621216,-0.316660373096727,-0.496886604074532,0.38573375031519,0
166,-8.33424949645996,-4.25393152236938,-1.06547725200653,-0.269655147093152,0.216826786208063,-0.064635797667145,0
167,-8.06267642974854,-1.11491143703461,2.55479645729065,-0.426131640364765,1.23234144228529,-0.43783922941189,0
168,4.83696031570435,2.04744982719421,9.24322605133057,-0.527786662991476,1.325757143842,-0.493883390602763,0
169,2.70196628570557,6.89544105529785,23.4274864196777,-1.10232558497248,1.86084160058959,-0.427201099279514,0
170,-5.48880910873413,1.59247481822968,12.4089975357056,-0.327737125860639,0.438911251619188,-0.142020422110987,0
171,0.802451074123383,2.86167097091675,11.9578037261963,-0.331519247372229,0.781865813106594,-0.105421681159221,0
172,0.23637019097805,-0.811561524868011,10.18470287323,-0.0331261827885738,-0.0510570633157523,-0.00937145061504217,1
173,-0.0460500419139862,1.62327814102173,11.196891784668,-0.00933794367928031,0.427451469711495,-0.0410956257716086,0
174,-0.302609771490097,1.71328997612,11.1261825561523,0.0122602480284784,0.159123941711262,0.0017953683583938,0
175,0.0380243882536888,1.80033457279205,10.0856733322144,-0.0758817568676288,0.062456345693619,0.0198174430374447,1
176,0.148880809545517,1.22439908981323,10.0746850967407,-0.0388635472382291,-0.0189029405668413,0.0313701630253974,1
177,0.665893733501434,1.36018133163452,9.29304313659668,-0.0727248540338273,0.0756310868300251,0.0150297940817279,0
178,0.0456767305731773,1.3521169424057,10.2243928909302,-0.0492082927258301,0.065893641939503,0.000637459075903815,0
179,0.0888373851776123,0.827133774757385,10.233983039856,0.0162980059569858,-0.0184507711838541,0.0102231472167036,0
180,0.278846383094788,1.23283112049103,9.80877590179443,0.0990371519199191,-0.0373519245199326,0.022308495261483,1
181,0.324363142251968,1.39766371250153,9.68028163909912,0.117590962470824,-0.0302866788224392,0.0314063695326548,1
182,0.274592131376266,1.58122420310974,9.69496440887451,0.0993224846635859,-0.0412669877041876,0.0311141271343161,1
183,0.321419417858124,1.55847465991974,9.59812355041504,0.0548768019777394,-0.0330779150744107,0.030128547390932,1
184,0.380747944116592,1.40685379505157,9.62239933013916,0.0382586018742392,-0.0288979901167742,0.0280737833712867,1
185,0.291775465011597,1.15843224525452,9.96416473388672,0.0686945841652911,-0.0149713449778817,0.0159593839840849,1
186,0.307517349720001,1.36386847496033,9.72410011291504,0.11344468696968,-0.0369761982632036,0.0132927649457778,1
187,0.408501803874969,1.38207316398621,9.5262393951416,0.111608412430935,-0.0293430084961157,0.0164426208056636,1
188,0.433251321315765,1.28679513931274,9.52083778381348,0.151084873710478,-0.0380586817001584,0.0187434692324106,1
189,0.36846736073494,1.61072945594788,9.58182239532471,0.126905534830944,-0.00798433119785544,0.011398045464376,1
190,0.366639256477356,1.66795885562897,9.5999755859375,0.0931744025171914,-0.0268144057007073,0.00890553994500852,1
191,0.316333889961243,1.57416784763336,9.76419162750244,0.0556423234718934,-0.0158944527877574,0.000918302871699,1
192,0.56803160905838,1.44560348987579,9.59506130218506,0.0557811282601462,-0.00637838940463207,-0.013223921191302,1
193,0.140398189425468,1.61542284488678,9.85750389099121,0.067222097431451,-0.0185553813998291,-0.00729568767423139,1
194,0.465086221694946,1.56868779659271,9.68774604797363,0.0572375486424725,-0.0878600562395599,0.00419679207799748,1
195,0.414660662412643,1.46037149429321,9.53344249725342,0.0416336467296427,-0.0480016477254288,-0.00285381377565584,1
196,0.47493839263916,1.43124711513519,9.5524730682373,0.0724368664514488,-0.00798790617952968,-0.012002870153879,1
197,0.562385201454163,1.68117308616638,9.45710945129395,0.0374307083151177,0.0257729453475128,-0.0368166124960698,1
198,0.531401872634888,1.69637227058411,9.46971893310547,-0.00428720249589079,0.0603808027756874,-0.0483375888521855,1
199,0.40848034620285,2.28148674964905,9.21007919311523,-0.0926783388298937,0.0940538448881629,-0.0610767242192279,0
200,0.0521786510944366,1.4500058889389,10.044602394104,-0.106235268549861,0.0147629203733667,-0.0348919418150804,1
201,0.641426503658295,1.44149267673492,9.4747371673584,-0.0519745847291227,0.0633573222187172,-0.0326458587994373,1
202,0.391247689723969,1.56162571907043,9.60528182983398,-0.0218019016849064,0.0713870317049828,-0.0249375658090146,1
203,0.41904217004776,1.68621134757996,9.48561191558838,-0.0477206925528039,0.128723708196655,-0.0350450486106247,1
204,0.283702313899994,1.60673260688782,9.59500885009766,-0.0573272888488297,0.101511686303415,-0.0360656177134243,1
205,0.369566529989243,1.49057114124298,9.5841178894043,-0.0683033533175908,0.126088069211966,-0.0483451996672383,1
206,0.245671182870865,1.21726059913635,9.82941341400146,-0.0223600149450084,0.105544952228178,-0.0412770411373027,1
207,0.271282166242599,1.37644648551941,9.69085788726807,0.0390822510203735,0.0792233998572977,-0.0373818767598176,1
208,0.773857593536377,1.60420060157776,8.88929748535156,0.0340279603425936,0.153441155419196,-0.0505801161316543,0
209,0.366832792758942,1.67050004005432,9.56320571899414,-0.000200267747161874,0.24815979189447,-0.0716752939258486,1
210,0.193972751498222,1.70140480995178,9.70352172851562,-0.0126056943516726,0.269556976317468,-0.0730570584126794,1
211,-0.054158627986908,1.57640826702118,9.98026084899902,-0.00927445433501174,0.23531138786014,-0.0670269002071158,1
212,-0.0987007841467857,1.52549183368683,9.99553394317627,0.0227570901829446,0.186791955039772,-0.0552358876388445,1
213,0.0905446112155914,1.6690046787262,9.80711650848389,0.0217165307272126,0.165297964711149,-0.0548121079691964,1
214,0.166480407118797,1.69162607192993,9.70125484466553,0.0145029823271101,0.189498309273781,-0.0641055622941102,1
215,0.299028635025024,1.63618576526642,9.65066528320312,-0.0170111411999629,0.265226659740243,-0.0953013277994048,1
216,0.584686994552612,1.7691239118576,9.36297798156738,-0.0771195358856488,0.43513575472081,-0.137674484429492,0
217,0.720550000667572,1.63588416576385,9.22499465942383,-0.0988602930564026,0.636678792590963,-0.184772413406138,0
218,-0.940975844860077,1.52167689800262,10.115912437439,-0.185203728989433,0.659366461654429,-0.207777764298137,0
219,-1.84410059452057,0.817888796329498,10.5502166748047,-0.0292578705650172,0.185302548910632,-0.126888407376184,0
220,-0.0877123102545738,0.848971247673035,9.58882617950439,0.0741709005714698,-0.0673525257458377,-0.150541838519454,1
221,0.761811375617981,0.241527587175369,9.54916286468506,0.0725749513539694,0.0278770111368381,-0.297315570412555,1
222,1.54915833473206,-0.661257207393646,9.4018030166626,0.160755926827262,0.2668377723312,-0.631869789452552,0
223,2.50065684318542,-1.29576802253723,9.28592586517334,0.281275351167008,0.686719988947715,-1.1492148636001,0
224,2.53187704086304,-0.599944472312927,9.09320259094238,0.559695394171287,1.26366967092649,-1.81711236233243,0
225,0.0297050625085831,1.81813597679138,10.4821310043335,0.820066928151991,1.56811412410302,-2.38944139324089,0
226,3.23629117012024,4.08376359939575,9.34463691711426,0.770187518831461,1.97868488092894,-2.60451641866293,0
227,5.9730339050293,1.96503031253815,12.446382522583,-0.020119851221007,2.86891638326654,-2.57567864511512,0
228,4.36785745620728,-0.623680830001831,16.8806495666504,-0.690119713816283,2.93295368957415,-2.7961034285349,0
229,1.38170504570007,2.96057796478271,18.2272338867188,-0.897002389672045,1.62603814412836,-2.86274450744028,0
230,1.67924582958221,5.85568332672119,15.296516418457,-1.3168420789349,0.0521599032902894,-2.71497555224782,0
231,4.75201606750488,4.8642692565918,6.66115140914917,-1.24943960227387,-0.412965737594227,-2.33463992959368,0
232,4.80020236968994,4.76552248001099,3.50938367843628,-1.00230930523304,-0.281687608503752,-1.98265219200483,0
233,4.53012847900391,5.81599283218384,7.39087820053101,-0.626299921190706,-0.193556001379167,-1.56056898926067,0
234,3.97114825248718,7.60595989227295,11.3788261413574,-0.193224720784318,-0.59681093817734,-0.952098798409985,0
235,3.41687369346619,8.16748809814453,11.9861841201782,0.11247577070846,-1.19653963564497,-0.210324828209446,0
236,3.28140115737915,5.82750272750854,10.0243635177612,0.365906848894686,-1.60003397398039,0.440593037847573,0
237,2.70378470420837,3.28259110450745,8.38359642028809,0.608372719154783,-1.70574322660306,0.812249817983308,0
238,1.69686770439148,2.66626071929932,7.85454034805298,0.677019824151265,-1.75017687096855,1.06139492954684,0
239,1.73328459262848,1.91348338127136,7.55165529251099,0.699683524764921,-1.49185517207888,1.22919531693152,0
240,0.7983118891716,2.31552982330322,10.9220027923584,0.779125819819066,-1.32600082308174,1.33651764622646,0
241,-0.153646856546402,2.98982286453247,17.8265914916992,0.792370718605439,-1.39749111885799,1.44350934407207,0
242,-2.18202924728394,3.28526425361633,17.3635025024414,0.6533927915923,-2.11621784331363,1.5910556589974,0
243,-2.46393275260925,2.02934312820435,11.8985605239868,0.532564274118537,-2.2255306192073,1.62762924972162,0
244,-2.91346549987793,1.92423498630524,8.31949996948242,0.608665200821501,-1.95287312416973,1.56895701458803,0
245,-3.39300322532654,2.41555762290955,7.261559009552,0.66632423631837,-1.49909510866031,1.56506733465792,0
246,-3.23361659049988,2.3656108379364,5.9348611831665,0.604029835786163,-0.988886840180986,1.57456789553067,0
247,-3.06518363952637,1.78284335136414,6.37964487075806,0.491997972419528,-0.425536923203837,1.57426163200531,0
248,-3.39487671852112,1.52838015556335,10.3925752639771,0.391368166943957,0.0797266790466739,1.52292161198492,0
249,-4.19995260238647,1.42381751537323,13.4348068237305,0.178253228084219,0.065743468782347,1.49022185538233,0
250,-4.72101640701294,0.487210243940353,16.4323959350586,0.0557808328157128,-0.26283154581388,1.37920319165242,0
251,-4.70198440551758,-0.282013744115829,15.1622076034546,0.308550148760568,-0.855426317156218,1.19864153553532,0
252,-4.16730928421021,-0.593846201896667,10.9084339141846,0.425521077395351,-1.10353838853291,0.974742591894493,0
253,-4.26984643936157,-0.888257563114166,9.28540706634521,0.26440357651584,-0.961179378778829,0.720282543164466,0
254,-4.74104118347168,-0.698607623577118,8.85263824462891,0.269092953787036,-0.994651119202408,0.549128969651262,0
255,-5.24423599243164,-0.359699964523315,8.70090389251709,0.345959406145343,-0.889049924340959,0.420310369696016,0
256,-6.23126840591431,-0.151140049099922,8.39477157592773,0.31404175337588,-0.847755814005545,0.37459008562889,0
257,-6.95250940322876,-0.447572857141495,7.01039505004883,0.0962025914465581,-0.724935418483971,0.310280171494197,0
258,-7.47980451583862,-1.15788340568542,5.81867551803589,0.0359069099572124,-0.482639524480448,0.201955211983113,0
259,-7.91476631164551,-1.00543797016144,5.53990173339844,0.154223176028541,-0.201735917312102,0.0629477821385227,0
260,-9.14029788970947,-0.237075224518776,5.99932193756104,0.11731841290039,0.125264977665185,-0.01998877168051,1
261,-5.54369401931763,0.84698486328125,1.82820665836334,-0.374550504397188,1.08955918965497,0.0678846253316355,0
262,7.32830286026001,-1.96221458911896,7.01178932189941,-0.226031836068354,0.710187098683221,-0.0562384554371508,0
263,8.40396404266357,-1.40887534618378,6.30372285842896,-0.572655001825885,1.95553788315646,-0.426599690926347,0
264,1.54663002490997,0.64871346950531,-0.0742936730384827,-0.51438254046143,2.96442639470449,-0.709664187003184,0
265,-1.20645558834076,7.32471084594727,17.0222225189209,-0.71134956849904,3.58007946391025,-0.674808534919145,0
266,-12.5753574371338,5.51440811157227,28.8737239837646,-0.513686889495187,0.866754738643143,-0.20248757788502,0
267,2.94481062889099,-1.19826507568359,12.6464405059814,-0.402902950125849,0.548043565059486,-0.0980793710010073,0
268,-2.01828646659851,0.514802038669586,13.6974401473999,0.0159580472020534,0.137880821157324,-0.0470564169531541,0
269,0.125978589057922,1.47432065010071,10.751335144043,0.014194318835878,0.32955383448775,-0.02036295205545,0
270,-0.349992364645004,1.27970552444458,10.7739753723145,0.0451785721342687,0.161051970471938,-0.00596176281922439,0
271,-0.212812900543213,1.8989919424057,10.0124225616455,0.0790644757192473,0.0557100509873655,0.00433335788638458,1
272,0.178535208106041,1.83097434043884,9.24627685546875,-0.0314645845696083,0.0483683109120731,0.00764023153951714,0
273,0.400457859039307,1.85097026824951,8.97396469116211,-0.143659431314362,0.131872921152809,-0.0188508695257464,0
274,-0.374757319688797,1.48107695579529,10.450587272644,-0.189428717545546,0.150142697251079,-0.0290222827576807,0
275,-0.321710169315338,1.07095730304718,10.3399181365967,-0.120088383394938,0.0383171664510858,0.0015588913569394,0
276,-0.0523561351001263,1.10519242286682,9.96857833862305,-0.0179948047157189,-0.0126823496985802,0.0154478770833567,1
277,-0.138395190238953,1.38957285881042,9.97140979766846,0.0131084762789389,-0.0201943968449886,0.0218055884985405,1
278,-0.0496296398341656,1.12082970142365,9.89241027832031,0.0315296364404227,-0.0356284140474066,0.0305061669887484,1
279,-0.057096790522337,1.3797003030777,9.85415077209473,0.0666967181662164,-0.0780757771645553,0.0365099536577364,1
280,-0.0177439339458942,1.35276079177856,9.87686824798584,0.0687014085155844,-0.0930143715028129,0.034293600258356,1
281,-0.0422854945063591,1.32407331466675,9.97823715209961,0.106167241428767,-0.118871160651582,0.0335266223479808,1
282,-0.0844754055142403,1.42422127723694,9.8368968963623,0.0835300392679569,0.00153676358316531,-0.0119246408371553,1
283,0.122488640248775,1.08599901199341,9.8913459777832,0.18103749642487,-0.180910197324764,0.0373730758446527,1
284,0.176276758313179,1.4823911190033,9.52617168426514,0.16155537449699,-0.130724982209687,0.0153894342212944,1
285,0.331602215766907,1.31369924545288,9.40334987640381,0.151299890678988,-0.12463712911582,0.00402155789879054,0
286,0.610547721385956,1.73183286190033,8.69334506988525,0.0716060767046418,-0.0211076738453716,-0.030465489283692,0
287,0.182988345623016,1.84863150119781,9.40603923797607,-0.0609162229904694,0.0627757377709144,-0.051892779910576,1
288,0.12696735560894,1.59447395801544,9.59156799316406,-0.0917697431673644,0.051571490331004,-0.0452741213607537,1
289,0.210352435708046,1.358323097229,9.72623443603516,-0.0805013343511291,-0.00908915553949377,-0.0432160138255837,1
290,-0.121535085141659,1.44673538208008,9.89311981201172,-0.0190105634837995,0.0612392144964255,-0.0298864826926006,1
291,0.156783074140549,1.30357789993286,9.88960933685303,0.042781390096872,0.0125876909665847,-0.0231584035920843,1
292,0.0877658799290657,1.47237312793732,9.67604827880859,0.0621850028680536,0.0148449509364277,-0.0173647236883467,1
293,0.444491237401962,1.41329061985016,9.03878688812256,0.0730068245366178,0.0319148647726972,-0.0208492910435797,0
294,0.0881393700838089,1.7215188741684,9.33701705932617,0.014791977957573,0.0690721038945666,-0.0308347303270477,0
295,0.538916170597076,1.60898017883301,9.04144477844238,-0.0415734259994933,0.146531450812931,-0.0520369609552794,0
296,0.00599970389157534,1.45870578289032,9.8818473815918,-0.0756779501428321,0.184047917076338,-0.0537759052785602,1
297,-0.169159099459648,1.36264407634735,10.0759706497192,-0.00213879611471294,0.154795389478258,-0.0451295117135624,1
298,-0.108041234314442,1.58855998516083,9.90489864349365,0.0152604623231289,0.114055674380393,-0.032436430308027,1
299,-0.155640959739685,1.60083568096161,9.93329524993896,0.0158860742332967,0.0718434392591735,-0.0249988081111134,1
300,-0.101409614086151,1.56961357593536,9.85847854614258,0.0164098722466341,0.0511643512569797,-0.0214697618044869,1
301,-0.0494189262390137,1.52557408809662,9.76080322265625,0.0108161270811396,0.0216021916508803,-0.0254717605535762,1
302,-0.0303232055157423,1.47370576858521,9.73586940765381,0.0131443488507628,0.0128104206992832,-0.0280603760196739,1
303,0.31189152598381,1.59242725372314,9.03717803955078,-0.00447137777032389,0.0364119451684323,-0.0388224222053334,0
304,0.229346662759781,1.6821882724762,9.19271373748779,-0.0613395782188187,0.130988360519118,-0.0632114933430894,0
305,-0.0190993621945381,1.37337791919708,9.75173282623291,-0.0730684351039611,0.156875002039231,-0.0738551994689978,1
306,-0.0198676437139511,1.46457171440125,9.80274391174316,-0.0303738640586257,0.193624378040154,-0.0817378483676313,1
307,0.16278649866581,1.5377676486969,9.58880138397217,-0.0228955745596287,0.282031289442427,-0.106966256334818,1
308,0.128308743238449,1.57493543624878,9.61584091186523,-0.0598754055410068,0.324134601275062,-0.127263771609452,0
309,2.91425895690918,2.00548815727234,8.20017051696777,-0.194528204979857,0.784145012946512,-0.258163790081785,0
310,-4.2942795753479,1.21889352798462,11.4976844787598,-0.15527179570776,1.03406796728543,-0.193065646843456,0
311,-1.09977173805237,1.65008759498596,9.6441707611084,0.0637049313199998,-0.225261433499264,0.0238777941427312,1
312,-0.0876114442944527,1.63516867160797,9.48533153533936,-0.0316767053504331,-0.0353005206605689,0.00666761546094713,1
313,0.0183247141540051,1.18796718120575,9.51574420928955,-0.0416965763939634,0.0950438833457782,-0.0418212997179524,1
314,-0.0538502410054207,0.890591084957123,9.67018604278564,-0.0114333656383332,0.204159210811749,-0.118607457769394,1
315,-0.135498866438866,-0.180431365966797,9.98915004730225,0.0123892282490223,0.206651297091304,-0.262580010248922,0
316,1.477015376091,-1.50833415985107,9.38399124145508,0.115288659708451,0.314145250473743,-0.686321180574476,0
317,1.84886658191681,-1.87867450714111,9.70437431335449,0.305627928675451,0.719835132101333,-1.28737726410843,0
318,2.75539517402649,0.18668894469738,8.52939510345459,0.563627351783708,1.28364857226621,-2.00922255020055,0
319,0.406981587409973,2.56527781486511,10.7727661132812,0.765657082343072,1.96928245754236,-2.42321879797859,0
320,5.1984395980835,5.19898653030396,9.05226707458496,0.277124847897633,2.48340251018885,-2.35279389979642,0
321,6.75197267532349,0.697383999824524,14.1737012863159,-0.739665761947362,3.35557711454544,-2.34316817035244,0
322,4.49318218231201,0.376673400402069,16.5867519378662,-0.970438590677789,2.98048898450319,-2.60255739736507,0
323,3.10664796829224,4.7558422088623,15.8107042312622,-1.07743288510546,1.89924904404044,-2.58652117286116,0
324,2.27768898010254,8.02057361602783,15.1103353500366,-1.17666180126862,0.200713313387782,-2.19003467661818,0
325,5.46510934829712,8.07674407958984,7.35209798812866,-0.915566819577796,-0.321470807684224,-1.56592460621281,0
326,5.11877965927124,7.91172647476196,6.88950157165527,-0.573543432365536,-0.382270242738515,-0.950823943196164,0
327,4.51194000244141,7.61675643920898,9.68864059448242,-0.0773214617529256,-0.666740688133832,-0.338684715311683,0
328,4.00787734985352,6.60274267196655,10.5022125244141,0.303342603565027,-1.15598208908805,0.243970955750155,0
329,3.19639182090759,4.87163877487183,10.5773401260376,0.410439229957583,-1.53701692468639,0.662417645315333,0
330,2.15943622589111,3.50903844833374,10.1016120910645,0.397811485464322,-1.86945759250627,0.942672473152623,0
331,1.64211130142212,2.0153911113739,9.51941013336182,0.384345078254282,-1.98052192944888,1.06582476512505,0
332,0.742746114730835,1.60675573348999,10.0149517059326,0.558560354914696,-1.97936758227438,1.13146862336025,0
333,0.232780516147614,1.52767288684845,11.175030708313,0.696600516328991,-1.89260152764349,1.15195086214599,0
334,-0.940208554267883,2.31293869018555,13.1168394088745,0.837915367198675,-2.05577713605817,1.19142170582011,0
335,-1.83914077281952,2.78241658210754,13.7609987258911,0.767011699231541,-2.04640653744662,1.2246090872183,0
336,-3.26186513900757,3.47194242477417,13.937858581543,0.626102514374904,-2.15857102623554,1.26406315297755,0
337,-4.15017795562744,3.6508584022522,13.0095958709717,0.608314529084965,-2.11470077359867,1.33599193822728,0
338,-4.45591354370117,3.29061222076416,10.1032009124756,0.68093833280018,-2.04201338691243,1.44051368731989,0
339,-3.67319679260254,1.8058420419693,7.48955202102661,0.666654068819377,-1.63212186932253,1.47062738134596,0
340,-3.517094373703,0.584320425987244,9.15148258209229,0.792219384476496,-1.15848133261303,1.37791049325929,0
341,-3.76545882225037,0.789893925189972,11.7336683273315,0.96456059467782,-0.924876498379413,1.31709441344819,0
342,-4.36523246765137,1.69420516490936,12.8862266540527,0.615838025743466,-0.91593813081278,1.31428411270788,0
343,-4.33423328399658,0.495602309703827,12.8159284591675,0.218101874448479,-1.03865100120534,1.26574320815123,0
344,-4.66265726089478,-0.365227788686752,10.3972692489624,0.219891751727608,-1.14987639281488,1.12935527187722,0
345,-4.56557130813599,-0.44649350643158,7.72877597808838,0.27724921752054,-1.03044067530171,0.965580984849484,0
346,-4.7094783782959,-0.663006007671356,6.69285440444946,0.286703472679835,-0.760764455946433,0.816652156423264,0
347,-4.83090209960938,-1.1300493478775,6.01828241348267,0.306755344633423,-0.431314051977519,0.687095228345307,0
348,-5.55979537963867,-1.44828677177429,7.74419355392456,0.396665726984343,-0.129357698661284,0.527605168563187,0
349,-6.6707935333252,-1.23630690574646,10.1820678710938,0.421635791681035,-0.18217499910547,0.366747042929093,0
350,-6.58517932891846,-0.967087507247925,8.51923942565918,0.282462854697074,-0.271387466803221,0.263942749778716,0
351,-7.87620401382446,-0.592105150222778,1.15940093994141,0.0912502603072308,0.201436012083845,0.214177390331868,0
352,-9.8363733291626,-1.29458451271057,0.328469514846802,-0.555871128135447,1.48715868749652,0.113512722413153,0
353,-6.92805480957031,-1.26612329483032,5.75714206695557,-0.393810418821614,1.76992207992261,0.029119486056874,0
354,5.91719627380371,-0.640279233455658,14.1746377944946,-0.616666135684426,1.54265470355603,-0.133408890989134,0
355,4.10366773605347,-1.18047094345093,15.5817565917969,-0.824102815625951,2.04965426239597,-0.531646548806896,0
356,-1.21630430221558,2.86428022384644,7.38949060440063,-0.397308480913433,1.93311593099076,-0.562408356373751,0
357,-4.8890118598938,8.63724136352539,22.3880271911621,-0.570398971487452,1.69563573131789,-0.261766614272985,0
358,0.140577167272568,1.65220546722412,9.94801044464111,-0.507891784384148,0.193808652142831,0.0652240982743219,0
359,-0.423020958900452,-2.55168056488037,15.2065229415894,-0.264535702595422,0.672325070623619,-0.0411047304535853,0
360,-0.340222477912903,1.85139644145966,11.298490524292,0.126199247865098,0.0900276945969379,-0.0339453669786929,0
361,0.00909861922264099,1.73944759368896,10.9170322418213,-0.0535664559812039,0.117614672926904,0.0334282705605674,0
362,0.221817076206207,1.29731404781342,10.3413791656494,0.0132930988812114,0.0828907973825538,0.028275399229968,0
363,0.222779080271721,1.62587141990662,10.0096712112427,-0.00631759391022395,0.0343219795687222,0.0319080383418093,1
364,0.273058414459229,1.74583637714386,9.8191556930542,-0.0795379857610633,0.0544564802563192,0.0186454524207281,1
365,0.258118838071823,1.37227082252502,9.91882419586182,-0.0882076154065721,0.00267958556393879,0.0191869146822332,1
366,0.325078815221786,1.0102698802948,9.92941856384277,-0.0338988719311304,-0.00808580595776587,0.0201761812392514,1
367,0.464425921440125,1.32209658622742,9.55297756195068,0.0173296292589038,0.0134161400444649,0.0184067374797053,1
368,0.385838866233826,1.46489083766937,9.55776691436768,0.0174578157326072,0.0420876033433927,0.0136008760391432,1
369,0.174798727035522,1.41402530670166,9.96353054046631,-0.00262493640605819,0.037438086103575,0.00873052864949828,1
370,0.723738431930542,1.16902935504913,9.01511764526367,0.00983267058454647,0.0381884192571373,0.00630138971931785,0
371,0.55676394701004,1.18549871444702,9.58017349243164,0.0374074639122283,0.127355575765654,-0.0295450633602578,1
372,0.154947996139526,1.32942914962769,9.82845401763916,0.0796253873790884,0.0789655725742644,-0.0184407156701444,1
373,0.257078886032104,1.51927614212036,9.69996166229248,0.0773199637248124,0.116803981723949,-0.0422421665551582,1
374,0.256769478321075,1.45056653022766,9.71888160705566,0.0747475581712561,0.107324568014731,-0.0354800093956619,1
375,0.253480404615402,1.51771056652069,9.83309364318848,0.0934247479820373,0.0994110930264799,-0.0382578320542366,1
376,0.0417143404483795,1.6932430267334,9.86728954315186,0.0845059130375244,0.0673360890484848,-0.0288519548806187,1
377,0.300232142210007,1.57007551193237,9.66410636901855,0.0645334490575019,0.0666000495798358,-0.030317301013786,1
378,0.16518759727478,1.59003019332886,9.79606437683105,0.050062439227635,0.0636880202470778,-0.0359741922254397,1
379,0.0346704646945,1.60162234306335,9.88080978393555,0.0489952772893266,0.0396577975826424,-0.0307612021138263,1
380,0.103411830961704,1.6491904258728,9.77267074584961,0.0505417582895788,0.00182107202410227,-0.0100149462761083,1
381,0.307541638612747,1.62574291229248,9.63993740081787,0.0280389188475473,-0.0242502663495032,-0.00902433565497747,1
382,0.0964483991265297,1.54694926738739,9.7728099822998,0.0254037001429679,-0.0515159384551406,-0.0113090865212917,1
383,0.553898453712463,1.52670884132385,9.24368000030518,0.0169839675941684,0.0372011646350989,-0.0293839067441998,0
384,0.132926672697067,1.70978665351868,9.67875957489014,0.00649718615489832,0.0659791252493054,-0.034390152331439,1
385,0.150267913937569,1.66070079803467,9.73851585388184,-0.00263611127966352,0.0269365490873903,-0.0191713747211537,1
386,0.129144281148911,1.58379900455475,9.77927494049072,-0.00262918289964011,0.0280163402349305,-0.0171501467655947,1
387,0.0999422669410706,1.40587520599365,9.86992645263672,0.0261486716042417,-0.00763877980463386,-0.0106365343163166,1
388,0.199360266327858,1.44458949565887,9.70025062561035,0.0598354289963312,-0.0249297448539071,-0.0131865953241488,1
389,0.464076340198517,1.64293253421783,9.23922157287598,0.0558893108570523,0.00811184511935385,-0.0321932441692054,0
390,0.492721289396286,1.87217855453491,9.0788688659668,-0.00926304851540564,0.0935917115376285,-0.0535112494840444,0
391,0.26550218462944,1.59324681758881,9.51485538482666,-0.0514055337832,0.149670252473698,-0.0597380987808672,1
392,0.1075808852911,1.50053989887238,9.76507091522217,-0.0370316336257693,0.0870139533164849,-0.0427305486871867,1
393,0.269658207893372,1.54408276081085,9.69940853118896,0.000638464978375119,0.150458148682198,-0.0460081468138284,1
394,0.174260169267654,1.62119090557098,9.55562877655029,0.0214081928490356,0.186225400807371,-0.0403470153503766,1
395,0.321843355894089,1.62732756137848,9.30960750579834,-0.00280441811914435,0.193857887333484,-0.0473972849279274,0
396,0.29857349395752,1.70004045963287,9.39599418640137,-0.0198468522421386,0.28720158367222,-0.064336928575,0
397,-0.0849735140800476,1.61903548240662,9.78961372375488,-0.0409938805344,0.277305493443324,-0.0620007620548905,1
398,-0.193143635988235,1.64893996715546,9.88565540313721,-0.015084117366479,0.245439106524845,-0.0598806236722676,1
399,-0.230878576636314,1.68079090118408,9.88096904754639,-0.00290119983785648,0.203840230692185,-0.0491409105890619,1
400,-0.168840512633324,1.6258453130722,9.83188629150391,0.00276999728220372,0.196885285636902,-0.0494270089915421,1
401,-0.107104018330574,1.58692896366119,9.75828170776367,0.00212080456300689,0.224905502019575,-0.0545253562600114,1
402,-0.20212984085083,1.56989622116089,9.79140186309814,0.00271847785875263,0.189604219861382,-0.0505814518733886,1
403,-0.209177136421204,1.54392087459564,9.82211971282959,0.0117437092097061,0.187391415956392,-0.0433416318052514,1
404,-0.226676732301712,1.64880084991455,9.78142261505127,0.0393458998071021,0.203122625291706,-0.0298597803414833,1
405,-0.0430758222937584,1.66984236240387,9.62542057037354,0.0407086643040309,0.227875659004313,-0.0392943884459551,1
406,-0.0260854810476303,1.8223432302475,9.37510967254639,-0.0091810252344258,0.251516756382785,-0.0577037100241556,0
407,0.0896421447396278,1.55855238437653,9.50246715545654,-0.0468198991200306,0.352667809062712,-0.108800816463611,0
408,0.754759252071381,0.609109699726105,9.33471870422363,-0.00600178825787314,0.48561237791579,-0.201442553473273,0
409,1.47605955600739,-0.270769268274307,9.27373695373535,0.0583789337125992,0.798773357340153,-0.468387085274671,0
410,1.83275496959686,-1.17691719532013,9.7062406539917,0.248523130290941,1.25353021770823,-1.09271470265158,0
411,1.19415664672852,0.102400690317154,9.93231678009033,0.565044020325575,1.73380602027367,-1.82867833778859,0
412,3.7002420425415,2.17663335800171,9.30384826660156,0.933877649968745,2.3409082118514,-2.24601126009639,0
413,1.80977463722229,2.93280982971191,11.6986112594604,0.6340212907182,3.35607805514649,-2.20941929356064,0
414,7.05962181091309,-0.341922700405121,14.6942768096924,0.0858924795366958,3.78905505148768,-2.31029038143098,0
415,2.50188040733337,-0.666176497936249,18.2855758666992,-0.524316963565266,3.19351497378252,-2.74230517767032,0
416,-0.380889594554901,4.30824089050293,18.8022651672363,-1.04445742475102,1.50504700738053,-2.85824376519805,0
417,1.57528030872345,6.26239109039307,12.8872509002686,-1.52158230827272,-0.411114108267322,-2.58315147513388,0
418,2.95829033851624,5.2915997505188,4.7154974937439,-1.50967251871983,-0.531046871508437,-2.16998200571626,0
419,3.03287601470947,5.13279151916504,3.11082649230957,-1.32801044444031,-0.236964528462049,-1.80851301517257,0
420,2.39040803909302,6.16274118423462,8.68813419342041,-1.03333060455861,-0.132567723236454,-1.3938565697603,0
421,2.04916143417358,7.12232255935669,12.9375324249268,-0.40718534644821,-0.66077820334828,-0.787043397739872,0
422,2.26847863197327,6.4092812538147,11.3833112716675,0.146751893972162,-1.36618233129275,-0.120877594539226,0
423,2.20338082313538,4.54988527297974,8.8603687286377,0.483858952654082,-1.66133834437736,0.392906408789587,0
424,1.92360150814056,3.1794126033783,8.46599197387695,0.583249123221248,-1.76578006547921,0.763727688712337,0
425,1.9884295463562,2.23217296600342,9.11057186126709,0.591469702295077,-1.78894717011792,1.00909876811609,0
426,1.58460140228271,1.26800155639648,11.2882690429688,0.617882068459129,-1.82706486164217,1.11032831746914,0
427,1.00786757469177,0.609028995037079,12.5731334686279,0.809260086764558,-2.03972053837192,1.10329917008799,0
428,0.496768057346344,0.855940699577332,12.9153709411621,1.00056992814608,-2.16286284349026,1.04898666281691,0
429,-0.770985841751099,2.49215936660767,15.0096883773804,0.977522399440318,-2.28677387005725,1.03239157395825,0
430,-2.18756341934204,4.36981105804443,14.1981439590454,0.724620766001178,-2.5644494263788,1.18346324837657,0
431,-2.28446507453918,3.58032631874084,10.9701547622681,0.515298900903012,-2.48156359745615,1.38866899827294,0
432,-2.55878853797913,2.32360482215881,11.2680549621582,0.586365887223995,-2.22943734336839,1.46445856815496,0
433,-2.75445747375488,1.84922420978546,11.5620746612549,0.715912628710782,-1.99849839996497,1.47021805348642,0
434,-2.85456514358521,1.41067457199097,10.9717664718628,0.722794303546574,-1.78695725615141,1.44546303904775,0
435,-2.9006359577179,1.16322147846222,10.9910936355591,0.645221813893773,-1.4841467854617,1.3753120469837,0
436,-3.85665965080261,1.08608162403107,14.6174917221069,0.67495620720159,-1.3858385906664,1.28824305777881,0
437,-4.22111797332764,1.22825348377228,14.0971956253052,0.625337121877615,-1.67486640376663,1.21380317793725,0
438,-3.80405688285828,0.442543685436249,10.6098070144653,0.487853461262605,-1.73293410133277,1.10154501245698,0
439,-3.63068985939026,0.0742275714874268,8.97257232666016,0.358675401139226,-1.43275962749002,0.949276646602828,0
440,-4.1429877281189,0.252313435077667,8.68983459472656,0.281388136039173,-1.30549901006198,0.814387870285451,0
441,-4.11983966827393,0.545168399810791,6.97083330154419,0.292346378134576,-1.10729431119727,0.736615377234786,0
442,-4.19049453735352,1.01736032962799,5.65686559677124,0.333195540830866,-0.75623874656898,0.760090742769671,0
443,-5.22347068786621,1.23930370807648,7.3510856628418,0.324641567278072,-0.464103024476629,0.872130728777631,0
444,-6.35109949111938,0.819032669067383,8.68611812591553,0.148927097371512,-0.449573749675538,0.996530511983677,0
445,-6.32757616043091,-1.11899220943451,5.65938329696655,-0.119070015561227,-0.418469126697362,1.03735364228031,0
446,-5.85964775085449,-3.24228882789612,3.32674908638,-0.305671504648788,-0.0440720162177732,0.828110007539166,0
447,-5.29346466064453,-3.9674346446991,4.19708395004272,-0.290650843337064,0.41840787399229,0.445119346436272,0
448,-5.81417512893677,-4.01147174835205,4.37533903121948,-0.116985209836129,0.840768877727667,0.0416069527009038,0
449,-2.94049310684204,0.26750174164772,2.3815746307373,-0.0240117740321028,2.1909785009085,-0.153966563812755,0
450,4.05854368209839,-0.862370789051056,10.6537981033325,0.123344497301723,1.86332366672554,-0.159709853795836,0
451,5.52398538589478,-1.10209441184998,12.1220283508301,0.0182008959333882,2.17249682873362,-0.333664756525424,0
452,1.84964036941528,-0.987551033496857,2.11663484573364,-0.0377609735798011,2.79347595380343,-0.661322819791202,0
453,-0.271798253059387,4.39414262771606,11.3931064605713,-0.253204401565569,3.39331863456572,-0.838031614180257,0
454,-6.84605312347412,11.2843637466431,26.2711696624756,-0.393562744840237,2.61781944094009,-0.396223642243389,0
455,-3.6352014541626,0.785589993000031,18.0345649719238,-0.325419376763943,0.541195146447807,-0.018012096537453,0
456,0.0553131103515625,-0.95404314994812,14.1080493927002,0.0751702684152789,0.537194246252667,-0.181025179304828,0
457,-1.01993477344513,2.37746071815491,13.3882923126221,-0.021197538887405,0.284446410366479,-0.0525991251330707,0
458,-0.215799540281296,0.781262934207916,11.7910528182983,0.0509540489158367,0.156418669386446,-0.00888475480493829,0
459,-0.181169182062149,1.50541758537292,10.6558856964111,0.10861604301823,0.0430406696349372,0.0134459851337279,0
460,0.0568842850625515,1.6320219039917,10.4093503952026,0.113249901703076,-0.0858911313113939,0.0352543689111157,0
461,0.316731870174408,1.5454785823822,9.81666946411133,0.0997995733281168,-0.0774421279174414,0.0313934136700705,1
462,0.450675815343857,1.42355406284332,9.56762981414795,0.0586456742629059,-0.0750290709432342,0.0287445545872828,1
463,0.291708678007126,1.4541312456131,9.53249168395996,0.0526666029771906,-0.106313748578235,0.0231771851195532,1
464,0.308340847492218,1.54264152050018,9.70059680938721,0.0576503719009484,-0.0700695326242069,0.00939391687555051,1
465,0.511700868606567,1.67229557037354,9.37601566314697,0.0218414621106617,-0.0281990663752236,0.00572640179669943,0
466,0.281077325344086,1.51576852798462,9.57053279876709,0.0478784848473911,0.00423981721391312,0.00996219592087599,1
467,0.519208908081055,1.43460917472839,9.58852481842041,0.0266450931538109,-0.00181827804562662,0.000334934183988078,1
468,0.359704345464706,1.6668199300766,9.58505058288574,0.00326250705384752,0.042435840784245,-0.00837503097378363,1
469,0.362823128700256,1.58026707172394,9.56597232818604,-0.0271186052762216,0.02866810938043,-0.0105757393420571,1
470,0.365248560905457,1.55165719985962,9.59966564178467,-0.0284661668683963,0.0426164405568552,-0.0158408119380357,1
471,0.247917905449867,1.57473134994507,9.77133464813232,-0.0340408017724748,0.0261504588350045,-0.0128513251891512,1
472,0.327776163816452,1.48196315765381,9.69077301025391,-0.0220189347495857,0.0335776843006939,-0.0111848136460339,1
473,0.248273000121117,1.49567246437073,9.95143985748291,0.0101337419860772,0.00470796478321785,-0.00969487488467548,1
474,0.319644659757614,1.70950186252594,9.60646629333496,0.00706032821215239,0.0176548438801919,-0.0116519560280718,1
475,0.290162771940231,1.39787936210632,9.75032615661621,0.0136265797048516,0.00643795578777927,-0.00546288044639014,1
476,0.357880353927612,1.47762227058411,9.62503814697266,0.0509919198987755,-0.0276355914228332,0.00589459602399745,1
477,0.611856281757355,1.60189771652222,8.95479297637939,0.0316582671210735,0.0435516178960149,-0.017763694347965,0
478,0.398349493741989,1.72940623760223,9.50532913208008,-0.0249109674876274,0.0978493987185006,-0.0316136737369769,1
479,0.495999157428741,1.66834342479706,9.31465625762939,-0.0477879748210312,0.144220759093124,-0.0360640531062839,0
480,0.0722247660160065,1.52426815032959,10.0787954330444,-0.0483684399089384,0.122821968451093,-0.0370278344600267,1
481,0.0726783946156502,1.46896576881409,10.0234117507935,-0.00582675927730879,0.0665405903473106,-0.0271022871727611,1
482,0.139249950647354,1.4702650308609,9.89493179321289,0.036984578898259,0.0293100373134637,-0.0132040275860185,1
483,0.265292644500732,1.69471216201782,9.6488733291626,0.0370556520098505,0.0307197337828213,-0.0122775668979423,1
484,0.251752465963364,1.72110342979431,9.62061786651611,0.00583469466511938,0.0383533729583432,-0.0174132254694025,1
485,0.306756228208542,1.66192030906677,9.55549240112305,-0.0246505769120449,0.0681248549455283,-0.0294643758210122,1
486,0.395980477333069,1.5448272228241,9.31891250610352,-0.047693424279955,0.0817929092231686,-0.040036544862733,0
487,0.117923445999622,1.56554532051086,9.80737018585205,-0.0549318919616012,0.105388716218352,-0.0458724629174781,1
488,0.0472888648509979,1.53974831104279,9.80715656280518,-0.023003505404588,0.0618212275467164,-0.0338119238827285,1
489,0.173279628157616,1.36920952796936,9.81700038909912,0.00603976691158254,0.0384797690803919,-0.0224498633422849,1
490,0.298184365034103,1.49333834648132,9.37531280517578,0.0252682492732129,0.0457744461057956,-0.0271201657221728,0
491,0.391316741704941,1.55576634407043,9.42239189147949,0.0172872766751932,0.116444779549546,-0.0467671851752038,1
492,0.386395215988159,1.53762102127075,9.3561487197876,0.014502311335351,0.17351644654562,-0.0668751083473597,0
493,0.16787688434124,1.69423580169678,9.65031623840332,-0.0210120185085619,0.202995159744032,-0.0882152553499492,1
494,0.194574847817421,1.45511651039124,9.73289394378662,0.00523545897286499,0.224894965888513,-0.0847966137152634,1
495,0.344298511743546,1.63208532333374,9.55139350891113,0.0141107236656766,0.302997291440185,-0.0945223947924487,0
496,0.330906420946121,1.67181277275085,9.48153591156006,-0.00880397051804372,0.410773090489738,-0.11106851477657,0
497,0.283708572387695,1.72559916973114,9.46612930297852,-0.0597823197385301,0.522507245736016,-0.135177970644625,0
498,-1.16892075538635,1.62336230278015,10.0853700637817,-0.0226497335820954,0.410989039564629,-0.0976550378931953,0
499,-0.3919657766819,1.77136695384979,9.602783203125,-0.00304424721857629,0.133260577883552,-0.0332502424028848,1
500,-0.127958357334137,1.70414400100708,9.58770084381104,-0.0502066244335276,0.17805084448613,-0.0519772895021048,1
501,-0.0436286516487598,1.64440941810608,9.53688621520996,-0.0418906043241325,0.212035825986038,-0.0630767415531206,1
502,-0.09044249355793,1.68950295448303,9.54707527160645,-0.0599976446350414,0.26983126526499,-0.088812294454453,1
503,-0.231314852833748,1.08321607112885,9.87379169464111,-0.0610048022250389,0.28513323961161,-0.117761071885453,0
504,0.0659526214003563,0.598539054393768,9.77774429321289,-0.00119199657410854,0.313186079717637,-0.200689944149216,0
505,0.870806813240051,-0.45820090174675,9.61032390594482,0.0894646524082247,0.494612996872904,-0.428188432964147,0
506,1.35977780818939,-0.51735132932663,9.29076480865479,0.230149232916428,0.805090774919985,-0.864322939672764,0
507,2.02447199821472,0.629817605018616,8.73333358764648,0.346426624469084,1.4453063120176,-1.46011694978786,0
508,1.28041696548462,2.6574649810791,10.0984077453613,0.447924121117316,1.96873903952193,-1.84310334983301,0
509,3.48518896102905,3.94276309013367,8.50483512878418,0.100064599468472,3.10279545651341,-1.75268277239626,0
510,3.13630437850952,-0.213496446609497,13.6676044464111,-0.0229189313146265,3.4913868785468,-1.86748618750934,0
511,5.72374153137207,-1.68426883220673,14.0858316421509,-0.252955229556078,3.71269929355791,-2.25699919643795,0
512,3.92575240135193,-0.848268389701843,15.7733907699585,-0.535478005377679,3.19532539069156,-2.65641610198639,0
513,2.58868050575256,4.13092613220215,16.2325172424316,-0.729214985197673,1.86489905966838,-2.59222406601945,0
514,1.2728955745697,7.56900930404663,16.5453605651855,-1.03348580027113,0.356764583057094,-2.26835704585492,0
515,4.41222667694092,7.93465089797974,12.4127731323242,-0.902900159643107,-0.493697701695757,-1.68342047718797,0
516,3.7120316028595,9.13004207611084,9.27170562744141,-0.789728263592835,-1.08905711721046,-0.986066153112428,0
517,3.77483630180359,8.6618070602417,7.2891788482666,-0.698275578075623,-1.32884454649373,-0.277235751912278,0
518,3.32344794273376,6.95514154434204,7.90430641174316,-0.320064758497203,-1.50809992209614,0.300576844193953,0
519,2.4963858127594,5.87573862075806,8.18297863006592,0.17510890036419,-1.74304159661795,0.756980303774513,0
520,1.48582017421722,5.44275712966919,8.04064750671387,0.307028385224183,-1.82461275606848,1.1500692056778,0
521,1.00579857826233,3.84256935119629,8.93302631378174,0.342944741080887,-1.80995831269615,1.43743454046754,0
522,0.487165749073029,2.46404767036438,11.1422758102417,0.486484396725223,-1.80102607040003,1.58626609693495,0
523,-0.703960418701172,2.05734729766846,14.1595640182495,0.643649949639381,-1.99868016070937,1.65158531583327,0
524,-1.21777212619781,1.72579038143158,13.3821506500244,0.606932881111432,-2.27052832109166,1.66987497409355,0
525,-1.66719055175781,1.24787092208862,12.1741142272949,0.544395034366078,-2.32812690283178,1.58417085494733,0
526,-2.05130219459534,1.68870484828949,12.3617305755615,0.583483747713284,-2.28149681635726,1.42294454729253,0
527,-2.36665010452271,3.38488912582397,11.6504096984863,0.692252972428464,-2.24438433498646,1.3840307037604,0
528,-2.73444247245789,5.3124852180481,12.3037519454956,0.708567364108235,-2.10794566549368,1.52041824056025,0
529,-3.23715615272522,6.32745456695557,13.0489702224731,0.591514576559445,-2.13787773193341,1.79890592785622,0
530,-2.9958701133728,4.71596670150757,10.656662940979,0.443074604640822,-2.08297773132586,2.02415156548127,0
531,-2.72863578796387,2.93317127227783,8.60707664489746,0.455367190310897,-1.80568127598549,2.07135915843817,0
532,-2.73339056968689,2.24053192138672,8.69573211669922,0.404896892123505,-1.44578634680409,1.98884337574899,0
533,-2.75033807754517,2.04200172424316,9.07811832427979,0.343265219228564,-1.12801849816805,1.86936877608391,0
534,-3.25629854202271,1.96215927600861,10.9724206924438,0.499222329508586,-0.892575017517842,1.7364043333912,0
535,-3.89491844177246,2.94400310516357,11.8684177398682,0.651262595615373,-0.840307218752702,1.67396558952791,0
536,-4.71716690063477,3.63980340957642,12.0319652557373,0.574165280480069,-0.862372174174281,1.71778524210408,0
537,-5.17827320098877,3.44652819633484,10.1494369506836,0.381320692651847,-0.908195855470729,1.80638648104214,0
538,-5.67390155792236,2.95350742340088,8.28101444244385,0.32592557710814,-0.747630943872653,1.89364735100357,0
539,-6.87737846374512,1.63203048706055,8.14570999145508,0.369213629441211,-0.57833346048118,2.0230617999632,0
540,-7.54984951019287,-0.535833179950714,6.2953085899353,0.108250640671914,-0.458680961655282,1.98721192326521,0
541,-7.69320678710938,-3.7403028011322,4.92609310150146,0.035353588306478,-0.199268431983116,1.62431068468728,0
542,-7.54090976715088,-4.37918901443481,4.73687839508057,0.402047143309552,0.135394885115412,1.08910904885172,0
543,-7.34562063217163,-2.28342175483704,6.22211599349976,0.511654131924644,0.406739167097081,0.673154378987069,0
544,-6.85084962844849,-0.927373766899109,8.04420852661133,0.339477338631117,0.530160072154954,0.458602298534584,0
545,-7.55063772201538,0.081841766834259,4.92451000213623,0.40172653200382,0.658777903053522,0.34682769652925,0
546,1.29540920257568,1.80241882801056,5.77944707870483,-0.133691235998953,1.84425969437832,0.492976417804023,0
547,6.59215974807739,-4.36532258987427,11.7111711502075,0.167771658534426,1.57269303012325,0.402019080249565,0
548,5.36823177337646,-8.25598239898682,0.822234153747559,-0.104771020970644,2.40847154344227,-0.285391666105889,0
549,2.52695655822754,-3.21723079681396,5.00442314147949,0.0507336265625514,3.75094042259868,-0.971603790233726,0
550,-6.19713401794434,12.5368871688843,24.7329940795898,0.30042983770178,3.21861287021154,-0.731541589304994,0
551,-8.39643383026123,7.77463865280151,24.093786239624,-0.0759732530958298,1.03959835418411,-0.110347979898892,0
552,-0.0600655116140842,-2.05235505104065,15.8042011260986,0.0915517218202494,0.141228398002797,-0.0293340744228963,0
553,0.522182047367096,2.15550184249878,11.5554285049438,0.306744858436631,0.161891465426558,-0.0455093159357106,0
554,-0.442860782146454,1.98541343212128,12.6740570068359,0.143281828361303,0.156642108601903,-0.0101492829874541,0
555,0.121186599135399,1.65816760063171,10.8145141601562,0.168982115184138,-0.0331360281622286,0.0262741793123955,0
556,0.258282750844955,2.30999350547791,10.0364322662354,0.0980828580775597,-0.0709507310170221,0.0298968731820411,1
557,0.464747041463852,1.67922627925873,9.77028465270996,0.0358153846006869,-0.0732764945641235,0.0289374444322048,1
558,0.929319441318512,1.86393523216248,9.03687572479248,-0.00468728991466151,-0.0521411030374691,0.0194660784629062,0
559,0.254776060581207,2.02881526947021,9.65353775024414,-0.088309980660972,-0.005190195117158,0.0291124557277151,1
560,0.455028742551804,1.23770236968994,9.97727870941162,-0.0297962930778094,-0.0352768268492457,0.0206122551424004,1
561,0.482149064540863,1.32995581626892,9.92916584014893,0.0440269172491884,-0.0116558675459228,0.00491929701868865,1
562,0.59216183423996,1.48863470554352,9.51795291900635,0.100393866047746,-0.0383794178415664,0.00114583923305732,1
563,0.502543866634369,1.74849629402161,9.48720932006836,0.0982321698685506,-0.0245980502207323,-0.00167590035629421,1
564,0.671759843826294,1.72189474105835,9.24220752716064,0.0537630263979762,0.00715029104213202,-0.00995996032197654,0
565,0.384038388729095,1.62708783149719,10.0075082778931,0.0532983463996494,0.0289251501987038,-0.0252457892544884,1
566,0.368923455476761,1.64809596538544,9.75426959991455,0.108617915553371,-0.0601365035187538,-0.0238292788378105,1
567,0.706862926483154,1.90746891498566,9.0592155456543,0.0802287514911811,-0.00388912571172822,-0.0230763740693207,0
568,1.06824922561646,2.08982014656067,8.03060817718506,-0.0149948151252854,0.0568526511247396,-0.026673368434447,0
569,0.641004025936127,2.07831764221191,9.14228916168213,-0.132187698471278,0.248923503271321,-0.0438240051800704,0
570,0.400014042854309,1.74008572101593,9.60774421691895,-0.16555282922747,0.175859112843265,-0.0304925515776754,1
571,0.538799941539764,1.83856379985809,9.43307971954346,-0.173389680077732,0.26139635165768,-0.0482247582069394,1
572,0.24352453649044,1.69053518772125,9.91422748565674,-0.191304931178264,0.227641583789252,-0.0423910622272288,1
573,0.320198386907578,1.62159061431885,9.9536247253418,-0.163948124867886,0.197053214588388,-0.0451267445227423,1
574,0.396139204502106,1.49241137504578,9.60722827911377,-0.106011354958835,0.169293605163136,-0.0506487299804267,1
575,0.0510121919214725,1.77200174331665,10.1102104187012,-0.105722135664452,0.192637993106659,-0.0557001348734942,1
576,0.165448784828186,1.58027815818787,9.96486759185791,-0.064947300129711,0.137699559755631,-0.0443271012771216,1
577,0.0307872965931892,1.63566219806671,10.0255355834961,-0.0321335685548416,0.096892092175158,-0.0350821497735609,1
578,0.104301273822784,1.70002520084381,9.85003185272217,-0.0229807062489434,0.0490822170153501,-0.0254364445408083,1
579,0.0893533304333687,1.67989456653595,9.88029384613037,-0.0182471496319769,0.0233833658027903,-0.0176494780267143,1
580,0.283680617809296,1.65549647808075,9.55313014984131,-0.0101445818839517,0.0067542259328749,-0.0116106042103645,1
581,0.226743295788765,1.70705842971802,9.60621547698975,-0.0201454466957962,0.0164752507708009,-0.0150804191095746,1
582,0.393584489822388,1.60841107368469,9.4065055847168,-0.0315605936075002,0.0499343619851482,-0.0193460552021223,1
583,0.157677948474884,1.76438891887665,9.70709323883057,-0.0414246676466663,0.0632792042138046,-0.0171793198228014,1
584,0.0404160767793655,1.79553055763245,9.8063383102417,-0.0661770563749471,0.0336021604155874,-0.0110372953275896,1
585,0.200280204415321,1.69807314872742,9.63467311859131,-0.0948810476898767,0.013822825548866,-0.00789269088847824,1
586,0.315790712833405,1.45564496517181,9.59262371063232,-0.0824988716162566,0.0351035008353627,-0.0112420331184705,1
587,0.198973760008812,1.53680515289307,9.61275100708008,-0.0643860347687876,0.0301683262791204,-0.0117500768694844,1
588,0.304822117090225,1.62700140476227,9.55453681945801,-0.0686263156952226,0.0621787444394919,-0.0164431804856115,1
589,0.117202371358871,1.47240114212036,9.74246120452881,-0.0497220248224848,0.0553479526252772,-0.0134970543685221,1
590,0.199921682476997,1.48085165023804,9.67119884490967,-0.0225464216571517,0.0524219458579855,-0.0111606725068713,1
591,0.230144962668419,1.53021788597107,9.58438396453857,-0.00897449293070095,0.0695659538292082,-0.0177601178058448,1
592,0.357260704040527,1.52310919761658,9.37638092041016,-0.0139533558123882,0.10203680341373,-0.0321658677054372,0
593,0.402356564998627,1.52892935276031,9.3854808807373,-0.026579610599914,0.170477846320867,-0.0549067583788135,0
594,0.316332072019577,1.59280383586884,9.47216606140137,-0.0411885576100848,0.228097716704956,-0.0753187812579428,1
595,0.199571013450623,1.53915524482727,9.65150547027588,-0.0414000042782587,0.271675687412195,-0.0834017081929287,1
596,0.224626839160919,1.65303826332092,9.63370513916016,-0.0191309466874495,0.346567272664154,-0.0908525504879411,0
597,0.0235755369067192,1.79654777050018,9.60870456695557,-0.0448560133919897,0.412564532376007,-0.0883626779610419,0
598,0.0288695301860571,1.75396907329559,9.51658725738525,-0.100865786515287,0.389512875770553,-0.0975146476918561,0
599,-0.148869752883911,1.58788907527924,9.77942276000977,-0.105862475931521,0.427788625905499,-0.119315983455031,0
600,-0.439111858606339,1.25612080097198,10.1213388442993,-0.0395002882489211,0.382739591591128,-0.0938627630799497,0
601,0.0551419034600258,1.31343376636505,9.78204345703125,-0.0187586908625161,0.352777997352814,-0.0780274907250408,0
602,0.886341154575348,1.13836109638214,9.04188060760498,-0.00762428118115244,0.565919334796857,-0.157384814295656,0
603,1.59974205493927,0.660119473934174,8.49567127227783,-0.00376199279911624,0.961553752649067,-0.36564642502959,0
604,1.94160008430481,0.38886770606041,8.56406116485596,0.0960158622422515,1.6041010204391,-0.766938462301564,0
605,2.37474370002747,2.00543713569641,9.82459926605225,0.141549358848422,2.24545519206078,-1.17887408918615,0
606,2.02097415924072,4.99892997741699,9.6964864730835,-0.436765276412802,3.32630737626882,-0.992435302596435,0
607,5.76004886627197,3.0708429813385,14.0570707321167,-1.19029012867294,3.78964467535302,-0.72947550893131,0
608,5.4146146774292,1.59617698192596,16.7413387298584,-1.64010828995752,3.7897948776385,-0.697652931012763,0
609,2.89683508872986,2.85408496856689,18.6374015808105,-1.63785419041087,2.56234819227872,-0.706499952154006,0
610,2.25323009490967,4.21276760101318,18.772123336792,-1.61233831084877,0.541982909498252,-0.565758945920207,0
611,6.3271107673645,3.77164554595947,9.5670690536499,-1.60346718809966,-0.0630268447333844,-0.414941969570634,0
612,5.34538269042969,4.80640411376953,8.14576625823975,-1.6452047813356,-0.255908558691678,-0.224221236066993,0
613,4.36660528182983,6.77557182312012,8.92238807678223,-1.64278103842752,-0.57227330426265,0.131467496488736,0
614,3.94098687171936,7.96676349639893,9.62440490722656,-1.63328833387999,-0.921387424456273,0.600582440334083,0
615,2.39601111412048,8.81173133850098,10.7934675216675,-1.34017256850649,-1.39165879607072,1.1177920927402,0
616,1.48625516891479,9.36870193481445,9.13970565795898,-0.929841562757703,-1.76851779507981,1.65255497278617,0
617,0.236681893467903,9.74571895599365,8.068434715271,-0.492749516479148,-1.88463587966501,2.18683462225234,0
618,-0.902913272380829,9.73159599304199,8.28907585144043,-0.0556111977766531,-1.86924054487743,2.71405303324622,0
619,-1.82466912269592,9.04591941833496,8.20650005340576,0.212325527978368,-1.79858048957101,3.17271701724955,0
620,-2.63081836700439,7.40893077850342,10.4052143096924,0.39893474023309,-1.61753001023583,3.46914069501304,0
621,-3.73845386505127,6.7658896446228,13.5027017593384,0.567900060857603,-1.72746862898566,3.61929690780665,0
622,-4.78595209121704,6.01192760467529,13.7339057922363,0.598632806679063,-1.92613205734814,3.69608489678134,0
623,-5.38483762741089,5.05921745300293,11.1952180862427,0.579980159562203,-1.91401440807217,3.64174149684162,0
624,-5.82792091369629,4.81006479263306,10.0388631820679,0.543037254973814,-1.68109553755633,3.49149553551927,0
625,-5.96234703063965,4.77307748794556,9.74401092529297,0.590804311496721,-1.49675432322019,3.32239066525364,0
626,-5.24049711227417,4.49376249313354,8.34501457214355,0.655574985789511,-1.24078446188917,3.1449780639675,0
627,-4.21017980575562,4.27619791030884,9.77460479736328,0.707930602291597,-0.804380176962124,2.94515922316609,0
628,-5.51705980300903,4.98744010925293,18.8416213989258,1.05169975817743,-0.986763102369702,2.83934970252837,0
629,-4.50582885742188,4.81620168685913,14.4844980239868,1.05452823499218,-1.56709719604078,2.87207143020996,0
630,-3.6667742729187,2.22694635391235,10.130633354187,0.777631853026559,-1.53740308304445,2.77098742261048,0
631,-3.43461847305298,1.2017742395401,9.23531818389893,0.770489721036157,-1.37406195916802,2.53975739569991,0
632,-3.08453226089478,1.79771792888641,7.44754648208618,0.708851123922382,-1.12209842422286,2.35032035577596,0
633,-2.89185380935669,2.33639025688171,5.69142818450928,0.546203154298673,-0.703906699042541,2.23344047396094,0
634,-3.64313149452209,3.14161348342896,10.6893262863159,0.501391074742292,-0.32130735617232,2.14454056150662,0
635,-4.5886378288269,4.82359743118286,15.9110927581787,0.652839053822645,-0.604947627676832,2.23824468340939,0
636,-4.72646284103394,5.51709175109863,13.5337104797363,0.597741979294432,-1.09233833141052,2.47659014412043,0
637,-4.69232368469238,3.95349311828613,7.07817935943604,0.477978892704269,-1.08655607605174,2.66414805757922,0
638,-4.9685435295105,2.62142252922058,5.62970542907715,0.610462235346059,-0.694738434094807,2.69018312039584,0
639,-5.49961757659912,2.77847862243652,5.58608484268188,0.680007557999198,-0.339096140410586,2.68944116371614,0
640,-5.21259737014771,2.21719241142273,4.7156548500061,0.662856534262978,-0.00259365258562817,2.69775581895548,0
641,-5.65714597702026,1.2779506444931,6.6396427154541,0.714949230186446,0.430794768854467,2.61901253710845,0
642,-6.42961740493774,0.771311044692993,10.3008413314819,0.749573653308839,0.520182905315622,2.45114097674363,0
643,-6.69944047927856,-0.089669480919838,9.98161315917969,0.664177994795876,0.292351271693079,2.22666459319945,0
644,-6.12919425964355,-1.97494494915009,6.78374242782593,0.551410399888592,0.331498940768917,1.90104814251484,0
645,-6.21216344833374,-2.94259691238403,8.13327217102051,0.527459260624964,0.514615833372921,1.43290516924359,0
646,-6.83207941055298,0.910112261772156,2.65052819252014,0.800825855592277,1.58230624271011,1.25108796583057,0
647,-2.60539793968201,-3.54510426521301,8.74257278442383,0.0962974166261217,1.28127569573495,1.20575537143914,0
648,6.75249719619751,-8.76949024200439,8.908616065979,0.209007512220995,1.45041811657195,0.774877278932063,0
649,6.80374765396118,-13.2093524932861,-0.843186020851135,-0.13958198188264,2.65009189334578,-0.313190374064895,0
650,-0.609388709068298,0.15204069018364,14.9899768829346,0.226805517654535,3.86132259082807,-1.08644895039689,0
651,-11.5020513534546,12.6804580688477,30.7741508483887,0.82416147174896,1.99765444421552,-0.341656237166479,0
652,0.248664051294327,2.25482177734375,14.0325736999512,0.398568821899313,0.563756315359495,-0.0647379673456524,0
653,-1.42593061923981,1.70731997489929,14.4617166519165,0.5967351046653,0.227022765020459,-0.105581662239329,0
654,0.120140358805656,2.76854157447815,11.8277454376221,0.332510342771902,0.0838739199437134,-0.0436487941474784,0
655,0.570391058921814,1.79089689254761,10.5567970275879,0.146787413883201,0.13492265671987,-0.0300602747596743,0
656,0.249033257365227,2.26334547996521,9.95768642425537,0.0404380871372789,0.109709911468845,-0.0164498893629044,1
657,0.12071505188942,1.8289715051651,10.4877805709839,-0.00738531604862882,0.100219528864887,-0.0127411337781572,0
658,0.378672033548355,1.66536450386047,9.77101612091064,0.0586215352043378,-0.00341751369233747,-0.00556592033358964,1
659,0.656406104564667,2.04119515419006,8.94399356842041,0.0145718177592075,0.0730810351848685,-0.00542711866622877,0
660,0.799203276634216,1.83289515972137,8.81180477142334,-0.0202337388083107,0.133397372817419,-0.00462783692392009,0
661,0.272952169179916,1.84034895896912,9.89459323883057,-0.0407788385987545,0.207023274116561,-0.0125030971109746,1
662,0.651544332504272,1.99505960941315,9.0329704284668,-0.071865293824869,0.2367867957488,-0.0168435035317208,0
663,0.0732362940907478,1.79342520236969,10.0232639312744,-0.124125785541768,0.218403277704849,-0.0309793628607796,1
664,0.185012817382812,1.67808246612549,9.85912322998047,-0.108722561139455,0.147082109302575,-0.0355164489295147,1
665,0.0460751950740814,1.44865429401398,10.1983366012573,-0.0399015392402228,0.0986931796980002,-0.0302377349150306,1
666,0.22533106803894,1.81204426288605,9.63909149169922,0.00819745118423768,0.066552004489295,-0.0172578861958506,1
667,0.218747138977051,1.96645712852478,9.60683536529541,-0.0303061219789914,0.0795653663860207,-0.0146260193291744,1
668,0.398886233568192,1.75799953937531,9.3045825958252,-0.0560615299946071,0.0873266417179739,-0.0138828392598526,0
669,0.147487506270409,1.80798900127411,9.73205852508545,-0.0767121304955155,0.140786296617087,-0.0271293432249606,1
670,0.0640762150287628,1.72908210754395,9.92493724822998,-0.0558013558008632,0.0819115780168669,-0.0191850109381727,1
671,0.00699914433062077,1.76806688308716,9.9103307723999,-0.0270714465189812,0.0542666051929749,-0.0180348187110973,1
672,0.203762844204903,1.79135525226593,9.60497665405273,-0.0341626226669945,0.0394899393713726,-0.0137829291070826,1
673,0.051721416413784,1.71583735942841,9.848708152771,-0.0303459071089637,0.0255447394898228,-0.0147672792190571,1
674,0.0965311154723167,1.74120712280273,9.74222278594971,-0.0124447541174531,0.00754792075852957,-0.0112326433950334,1
675,0.179100096225739,1.67557787895203,9.6221923828125,0.00109800753350043,-0.00675970257801502,-0.00915084516943194,1
676,0.175392746925354,1.79846429824829,9.64065265655518,-0.018372540826833,0.0113205963706279,-0.0138620509988905,1
677,-0.000160425261128694,1.79573559761047,9.84074974060059,-0.0242719440646575,-0.00504088800750488,-0.00927578903644869,1
678,-0.00847922079265118,1.81228053569794,9.80955982208252,-0.0365510745294429,-0.0625304273450044,0.00191047699465435,1
679,0.266964614391327,1.6706041097641,9.45280838012695,-0.0330933343610033,-0.0791282833944899,0.00847549924605552,1
680,0.313209712505341,1.71625566482544,9.4626636505127,-0.0281843128789034,-0.0482260523367816,0.00462660625221323,1
681,0.3727887570858,1.85936141014099,9.24123191833496,-0.0430921851572734,-0.00782295403876965,-0.00348054400542205,0
682,0.257125347852707,1.76785409450531,9.51575088500977,-0.0868269744408262,0.0244025887608827,-0.00980283277736457,1
683,0.235950022935867,1.67208397388458,9.67288875579834,-0.0765031306065931,0.0519317910593565,-0.0145719290710187,1
684,0.193632334470749,1.84392464160919,9.63014698028564,-0.091050689673043,0.0531050050656988,-0.022193496636662,1
685,0.186291828751564,1.74273908138275,9.63343906402588,-0.0999225947257216,0.0593425860694768,-0.0171999946913577,1
686,0.181291997432709,1.71013474464417,9.61570072174072,-0.111879638743203,0.061257423860379,-0.0162695111736193,1
687,0.247842162847519,1.6820627450943,9.53185272216797,-0.106626761552481,0.0713563138062844,-0.0134281034634243,1
688,-0.0226097721606493,1.82924008369446,9.87084007263184,-0.125259385026896,0.0666852208004479,-0.0147525298839262,1
689,0.232349902391434,1.6465300321579,9.60853004455566,-0.141078495322939,0.0569673168544243,-0.0137362145567896,1
690,0.0576378926634789,1.65068197250366,9.79778861999512,-0.144025066687273,0.0510996530872476,-0.0111403346946404,1
691,0.0201606974005699,1.49100041389465,9.85351276397705,-0.12111050462131,0.0413075468153517,-0.00647897054916109,1
692,0.126707017421722,1.48909258842468,9.6615047454834,-0.0949118821018728,0.0303238923374839,-0.0106298296002128,1
693,0.698638200759888,1.51116502285004,9.01186180114746,-0.102646584079574,0.11177942898481,-0.0398830011423223,0
694,0.246498137712479,1.4561961889267,9.50199508666992,-0.11110836232438,0.21585276832888,-0.0629596290441843,1
695,0.442885935306549,1.47331917285919,9.20886039733887,-0.0855747061620005,0.274787674369736,-0.0644813176791636,0
696,0.22926139831543,1.45145356655121,9.55631923675537,-0.0491340321433089,0.339598146276066,-0.059570315471003,0
697,0.233357802033424,1.52397859096527,9.57890224456787,-0.0137024901988919,0.412782245795121,-0.0644985949367355,0
698,-0.173741832375526,1.40467345714569,9.90977191925049,0.0118934880941851,0.433154695764927,-0.0658327637414595,0
699,0.131612315773964,1.36481642723083,9.86922740936279,0.0608897495047583,0.415557958730769,-0.0385628846735376,0
700,0.501104712486267,2.00968980789185,9.29245758056641,-0.0182916993235869,0.566003623845358,-0.0640565892583772,0
701,1.19600367546082,1.45557463169098,8.82478332519531,-0.0888119365921815,0.888943397897356,-0.145639541519107,0
702,1.97249937057495,1.49944508075714,8.13176345825195,-0.138576879920109,1.44054138419523,-0.333802541822322,0
703,2.92657732963562,3.33529162406921,8.78727340698242,-0.348365638769257,2.2579233133362,-0.554678631178337,0
704,3.23280787467957,6.44208765029907,9.75545883178711,-1.27099962235277,3.58713657448285,-0.364796876641855,0
705,2.3136146068573,7.26641702651978,12.6441879272461,-2.58318902570525,4.37771884725825,0.120333702143226,0
706,3.27878952026367,8.02793025970459,16.1131935119629,-3.64550560872634,4.12980704559553,0.633219213176895,0
707,3.22383379936218,9.16754341125488,17.5170497894287,-3.53230954448917,2.9751378949249,1.08302186154813,0
708,1.87085950374603,8.91794109344482,15.5792169570923,-2.57678865065746,1.82457680339376,1.79111791272244,0
709,3.24081063270569,6.10844326019287,12.8472204208374,-1.52697361158348,0.544039136175902,2.42128294618221,0
710,3.84796857833862,4.39682531356812,9.36973762512207,-1.30065232319415,0.0227579307431636,2.57144235476913,0
711,3.65189814567566,3.14751386642456,7.93041753768921,-1.33686998243868,-0.328160535184448,2.58543380418808,0
712,2.86519193649292,3.18533229827881,9.28535556793213,-1.40306231870038,-0.681609249657798,2.52102818270171,0
713,1.67023193836212,4.41702222824097,10.6774024963379,-1.34663765836876,-1.20902932852522,2.52178558571573,0
714,0.700120270252228,5.48192405700684,9.7160062789917,-1.23568797051108,-1.68901577863822,2.6111144002636,0
715,-0.092593252658844,6.58308553695679,8.76989841461182,-1.09489117105245,-1.93323630587203,2.74468631000096,0
716,-1.54749739170074,7.67190647125244,9.85117053985596,-0.873078148335427,-2.0868813928517,2.9337917863692,0
717,-2.38062357902527,8.21149349212646,9.67266750335693,-0.613827072804347,-2.23288853382502,3.14335007359314,0
718,-3.00314426422119,8.51551628112793,9.43497180938721,-0.339927512723882,-2.2230088719711,3.31285681486726,0
719,-3.79046034812927,9.08928489685059,10.3106021881104,-0.0851880484612346,-2.12200382709794,3.45114891132068,0
720,-4.69237327575684,9.14065837860107,12.0421380996704,0.170871611332792,-2.10496452296945,3.58891956083266,0
721,-5.42908048629761,8.84510898590088,12.0334091186523,0.486467585520842,-2.11651664998794,3.72409575881068,0
722,-5.99819612503052,8.22462463378906,11.8223218917847,0.66207076858335,-2.05533172236586,3.80814805229078,0
723,-5.83531141281128,6.65209722518921,11.210259437561,0.781932192396765,-1.96028044042568,3.82245987998887,0
724,-5.17930746078491,4.6747407913208,9.80343341827393,0.892427544972479,-1.78612355357216,3.69038679731301,0
725,-4.15137243270874,3.48149538040161,8.9283618927002,0.98524356923073,-1.47722016978251,3.43339974160363,0
726,-3.57351517677307,3.1634509563446,9.66524791717529,1.00484909538562,-1.20211110180347,3.14534131914019,0
727,-2.99858593940735,2.57392120361328,11.5847978591919,0.996880850825077,-1.01272253141136,2.86584735642633,0
728,-3.44064998626709,2.46933960914612,15.6246128082275,1.19463467651724,-1.17183815074421,2.58463059480331,0
729,-3.40682482719421,2.68086433410645,15.9413566589355,1.15092700986491,-1.54551933278257,2.39611261177154,0
730,-3.62726497650146,2.06102013587952,14.022668838501,1.02866767580599,-1.8080142051004,2.26768166820247,0
731,-3.83403921127319,2.07038831710815,10.1092548370361,0.926274125319487,-1.7705885359854,2.20823072476614,0
732,-4.73011445999146,2.38108372688293,7.81059694290161,0.638569037753674,-1.44793378674907,2.17344997408776,0
733,-5.78074073791504,2.32451820373535,6.38474559783936,0.411565447493064,-1.04566536804245,2.13455077794163,0
734,-6.09440088272095,1.76392686367035,4.43983840942383,0.344248824487671,-0.540217000668934,2.09327963737062,0
735,-6.80843353271484,-0.61923760175705,6.83144521713257,0.509340577306664,0.0479282859597756,1.96937340449359,0
736,-8.44100093841553,-2.80556273460388,12.0318880081177,0.753724922237027,0.101537269294637,1.60290020110358,0
737,-8.89891910552979,-4.13694906234741,11.6946020126343,1.1860864620503,-0.315791150606439,1.11758915986514,0
738,-7.67361307144165,-3.33740830421448,5.5807204246521,1.2233613962476,-0.311915086087397,0.678039282216547,0
739,-7.01280355453491,-2.24806475639343,3.82738900184631,0.763311303475903,0.119550333308579,0.311164607292212,0
740,-7.91311407089233,-1.51054048538208,6.97882604598999,0.350526660835802,0.492155798003628,0.0196058548888379,0
741,-8.6742696762085,2.58000230789185,-0.752903044223785,-0.207379605070414,1.73651046036064,0.145676093405068,0
742,-4.86797094345093,-0.387354403734207,4.01978635787964,-0.436071090185159,1.78919497725735,0.245571765236645,0
743,6.86200857162476,-0.807871162891388,10.0025205612183,-0.293362240932387,2.12224058211885,0.221244920522234,0
744,4.9810266494751,-7.71560859680176,3.46585869789124,-0.857771496812142,3.28618552286623,-0.506107266716713,0
745,-2.69202256202698,5.71623992919922,19.4352283477783,-0.390722383669126,4.00811017115884,-0.839549216527438,0
746,-16.2582054138184,8.68586349487305,33.0594749450684,-0.15305899180277,0.479617169538345,-0.0552022777136499,0
747,7.81810283660889,-1.16014337539673,6.33438205718994,-0.43682080332153,0.912214365818577,-0.0540744664427041,0
748,-4.07884168624878,1.82652270793915,16.8331756591797,-0.536545333763556,0.787063504606102,-0.0256206666286199,0
749,-1.33984422683716,0.448669970035553,13.1056365966797,-0.113977219319155,0.290474974836578,-0.0386644343348537,0
750,-0.333877176046371,0.802657961845398,10.8561573028564,0.0154732468136316,0.0814462488730244,0.0101087113927224,0
751,-0.360046237707138,1.66374182701111,10.3172054290771,0.085105140927549,-0.00332497924743022,0.0264671773482368,0
752,0.0911012887954712,1.61773061752319,9.68137836456299,0.0436226951687956,-0.0271125694712823,0.0277617628406649,1
753,0.0587638169527054,1.57003152370453,9.64706134796143,-0.0122795788329221,-0.0246595172270481,0.024078941867627,1
754,0.0791337564587593,1.29287230968475,9.76620006561279,0.00689571052697456,-0.00234174537445947,0.0201207500378749,1
755,-0.113438062369823,1.49995350837708,10.0023317337036,0.0052182456935771,-0.0406880747398532,0.0273035618139276,1
756,0.0317500084638596,1.37285137176514,9.85094356536865,0.00461721912951935,-0.0799344971578625,0.030131445659212,1
757,0.05528175085783,1.40977776050568,9.83126449584961,0.019230498977948,-0.0864796316556526,0.0304696255057601,1
758,0.131389006972313,1.42148458957672,9.70361995697021,0.00840576395679287,-0.0797543426324971,0.0274206805646476,1
759,0.157630622386932,1.36109340190887,9.64699363708496,0.00963441488614688,-0.0916249004935777,0.030692692294784,1
760,0.330587089061737,1.10407066345215,9.53454208374023,0.0181460119283919,-0.0644971218757575,0.0245858662587452,1
761,0.377839416265488,1.2953120470047,9.39985084533691,0.0536582102031355,-0.043050165468699,0.0174917918424518,0
762,0.641748309135437,1.60471105575562,8.93773937225342,-0.00780931938219655,0.0815434542528123,-0.0211449955513356,0
763,-0.00478518754243851,1.65867972373962,9.85754776000977,-0.071138367360575,0.0989660788083277,-0.04092723908931,1
764,0.0616703554987907,1.41838121414185,9.78758239746094,-0.0860397523449771,0.079570284911659,-0.0466516289510296,1
765,-0.127998292446136,1.41202807426453,9.94411849975586,-0.0893875289275317,0.0262662397633957,-0.0262013106476628,1
766,0.232286274433136,1.10734236240387,9.6239185333252,-0.0109087738781553,0.021821906602001,-0.0122062670015392,1
767,0.474460959434509,1.26469779014587,9.28461456298828,0.0235559199160761,0.0409391941858909,-0.0182489389433343,0
768,0.0024419198743999,1.46475577354431,9.65893459320068,0.0235930252402014,0.0926759752744263,-0.0217665898333277,1
769,0.0304339677095413,1.5100759267807,9.8861026763916,0.0141384236619053,0.0423616342971835,-0.0266148059381951,1
770,-0.0572884008288383,1.52250909805298,9.89851856231689,0.0029799867539335,0.0321578199655181,-0.0238830330799381,1
771,0.0525689907371998,1.29299747943878,9.80404949188232,0.00739973196847482,0.00832999234244226,-0.0173747802423537,1
772,0.183201372623444,1.2405252456665,9.59050846099854,0.0381088489971927,0.0247195298977373,-0.0198099549774734,1
773,0.436559557914734,1.59417641162872,9.12315464019775,0.0159589428980294,0.110022175429035,-0.0478429649363522,0
774,0.00196975562721491,1.53620135784149,9.78838539123535,-0.0212686057572127,0.149862249743536,-0.0609265219337474,1
775,-0.208697572350502,1.52459585666656,9.96424674987793,-0.0285826177482492,0.105859213559185,-0.0484339245434299,1
776,-0.0999399125576019,1.25989246368408,9.84851169586182,0.00515812119092801,0.0591072333693302,-0.0363403102962984,1
777,0.0198684670031071,1.32755172252655,9.68305492401123,0.0267812160556222,0.0505048818308596,-0.039401318524911,1
778,0.275211066007614,1.34411263465881,9.31502056121826,0.0366287514483,0.0645803872717145,-0.0481147446867839,0
779,0.179605036973953,1.51892948150635,9.38959312438965,0.0177056977734448,0.14200980275614,-0.067125441328638,0
780,0.0779270678758621,1.3829118013382,9.60443210601807,0.026307377279859,0.16886714984883,-0.0704768048562857,1
781,0.0307075642049313,1.35451924800873,9.62310791015625,0.0518462078810132,0.19801303449001,-0.0692070221321035,1
782,0.15424519777298,1.5207554101944,9.6394214630127,0.0679436476392944,0.282252331812903,-0.079157420041291,1
783,0.433469712734222,1.54391574859619,9.48927879333496,0.0335398653326201,0.411785358020077,-0.113382102684063,0
784,1.9231721162796,1.70025360584259,8.55619525909424,-0.0655638427280104,0.835951818526959,-0.205243217243952,0
785,-1.04789412021637,1.40676414966583,9.73904228210449,-0.147872868409247,1.22762058977896,-0.246621150574677,0
786,-3.49629306793213,1.37348830699921,10.9546680450439,0.0347573169413823,0.33073980670019,-0.0443700613944559,0
787,-0.971004366874695,1.44644260406494,9.78578662872314,0.115938978679513,-0.0132632610740295,0.0230373733235132,1
788,-0.305797696113586,1.60104191303253,9.72460556030273,0.139160902824785,-0.102731730333051,0.0336225065501967,1
789,-0.52615350484848,1.60293555259705,9.69777679443359,0.0854589502007445,0.006109390889034,0.0139857641942004,1
790,-0.214408308267593,1.70538401603699,9.52846717834473,0.0592920650713601,0.0611796304282242,-0.011154861406149,1
791,-0.177659273147583,1.50730907917023,9.53128910064697,-0.00804400993311113,0.190951096937933,-0.0716544879798324,1
792,-0.518537938594818,1.42167222499847,9.8003101348877,-0.00593472029088978,0.228770930539014,-0.104447014134522,1
793,-0.220011323690414,0.77516382932663,9.76975250244141,-0.030692619473973,0.284654070352478,-0.207089520248677,0
794,0.588089406490326,-0.894840121269226,9.67757606506348,0.0251769694268505,0.413959962208181,-0.537811467124807,0
795,1.04594624042511,-0.752174973487854,9.17682552337646,0.122663302306773,0.771773164944494,-1.03878216188903,0
796,0.286228805780411,-0.236286774277687,9.48497867584229,0.306384366293575,1.12186806078857,-1.66543588403055,0
797,1.1171647310257,1.77568817138672,9.45254325866699,0.476194641352943,1.3126453365311,-2.20195911355706,0
798,4.37784337997437,3.80322813987732,8.24734306335449,0.401324161652623,2.60522295530013,-2.4606540544735,0
799,2.29691171646118,2.20265221595764,12.0668287277222,0.151063718224569,3.31931231734962,-2.37792481942296,0
800,6.3304328918457,-0.319024652242661,14.2270994186401,0.0112604162120732,3.65868958770277,-2.60174646481314,0
801,5.73422908782959,-1.08056271076202,16.5493621826172,-0.430982754737913,3.54755294593657,-2.9687785325579,0
802,4.63035202026367,1.68054723739624,17.6732730865479,-0.785180117083198,2.22202296973555,-3.16526309567453,0
803,-0.616279423236847,7.25474643707275,19.6553783416748,-1.10519993473701,0.445219880767422,-2.94365427083409,0
804,5.47136831283569,8.20479583740234,10.7022113800049,-1.18046013477335,-0.800654680913212,-2.33607856921454,0
805,4.46726894378662,8.55771732330322,7.71994256973267,-1.03072976143804,-1.05721370005639,-1.65726490633203,0
806,4.37709331512451,8.47576999664307,6.40834426879883,-0.607433155922203,-1.16522032859342,-0.959511640725194,0
807,3.91157460212708,8.21296787261963,7.34586668014526,-0.275663205222857,-1.28360010273437,-0.296237755829886,0
808,2.54312682151794,7.06081342697144,11.4855279922485,0.107647218303173,-1.59090359249916,0.268978837334326,0
809,1.430743932724,6.00451040267944,11.2204122543335,0.573320459203269,-2.05876373806264,0.774941128219198,0
810,0.391016155481339,3.98770689964294,9.20493698120117,0.725401072200571,-2.27864590241033,1.18209611463098,0
811,-0.370916903018951,1.95557415485382,9.013108253479,0.855856151356157,-2.13150199112571,1.37679116665313,0
812,-1.32833504676819,2.5508439540863,11.6755228042603,0.966716024106076,-2.02415809022594,1.53677897124299,0
813,-2.52299737930298,3.2711501121521,14.4945859909058,0.835547350936403,-2.10783887273397,1.79038820658376,0
814,-3.57569265365601,1.63713598251343,13.7246503829956,0.549180202212732,-2.38894764317479,1.91506715565107,0
815,-4.06371593475342,0.316004902124405,12.4095783233643,0.587576227360409,-2.32230470005665,1.79584475734123,0
816,-4.68388795852661,2.14027142524719,11.6972951889038,0.736797337716265,-2.21524096370356,1.72955894412526,0
817,-4.89939451217651,2.80572748184204,10.2378158569336,0.797346036153925,-2.03964144248755,1.86483141537669,0
818,-4.17935991287231,2.35138630867004,8.43242740631104,0.816269260437538,-1.68305562411862,1.98947893914314,0
819,-3.23403716087341,2.00934243202209,9.08940124511719,0.711018737312625,-1.26914419802131,1.97718738544799,0
820,-3.83231234550476,1.53590607643127,17.6663208007812,0.618692202062731,-1.10656260768777,1.8833820634238,0
821,-4.82504415512085,0.807779014110565,18.807674407959,0.556736655489723,-1.8315787865318,1.77017414811979,0
822,-3.71234750747681,-0.94571852684021,10.8609685897827,0.325382958036037,-2.01848768763294,1.49582221683866,0
823,-4.06389808654785,-1.05331528186798,7.18602848052979,0.313476231118401,-1.86390942900731,1.22377192252963,0
824,-4.15443658828735,-0.235017836093903,4.94957637786865,0.368221901540779,-1.3230802674723,0.98228726068366,0
825,-3.58683013916016,0.469380795955658,3.25506496429443,0.405036674791221,-0.777808886660022,0.893656194341387,0
826,-3.66411352157593,1.05675137042999,5.08802938461304,0.217477413107126,-0.0574377351326624,0.83385704259253,0
827,-5.06086444854736,1.26516342163086,10.0850515365601,0.102860727198352,0.194886433435986,0.918743771021179,0
828,-5.40022802352905,-0.510494232177734,16.4160041809082,0.153790978273135,-0.152137554710359,0.873313438617735,0
829,-5.79210472106934,-1.77548575401306,13.7981462478638,0.520174216752566,-0.914776326787234,0.776048204284344,0
830,-5.86058282852173,-2.15555906295776,6.09011316299438,0.34006493183613,-1.03923776217251,0.561866336512893,0
831,-5.27439880371094,-2.90801548957825,0.797399580478668,0.050879879879478,-0.449081530927064,0.295156479137801,0
832,-8.12488269805908,-2.42097926139832,-2.18897581100464,0.0439388581632692,0.47772459410968,0.0661156497058748,0
833,-9.92221546173096,-1.03279447555542,-0.390141069889069,-0.389580287035646,2.0546247862545,-0.127716650475198,0
834,-4.1771068572998,-1.61907362937927,7.15381622314453,-0.149409745384818,2.03532099625111,-0.0888656575447954,0
835,7.01798486709595,-2.2864146232605,12.8569993972778,-0.300257164994602,2.00740201327938,-0.31000366879402,0
836,3.74224853515625,0.794982850551605,5.041015625,-0.750769545796339,3.1399193894769,-0.759023414383794,0
837,-4.29547548294067,10.4497146606445,20.6932029724121,-0.510458472463739,3.5213181460382,-0.555284433747303,0
838,-10.1809797286987,3.46459698677063,25.6539821624756,-0.630507382817895,0.867421860496208,-0.0555253857329037,0
839,1.51693201065063,-3.24044680595398,13.6188135147095,-0.149719421085324,0.666444145146451,-0.101233152942906,0
840,-1.31979930400848,1.83579730987549,12.8839521408081,0.0618548915673706,0.200795072433247,-0.00728764305520421,0
841,-0.613745093345642,1.39932906627655,12.2264585494995,0.0250852048019458,0.184695431405878,-0.0157943262531489,0
842,-0.0222759190946817,0.95605331659317,10.5945320129395,0.0374823445119408,0.108694689494171,-0.00361241625246221,0
843,-0.145471855998039,1.55531787872314,10.1967878341675,0.0548148793212058,-0.0350166609778801,0.0194312139391667,1
844,0.272385001182556,1.32900869846344,9.72368812561035,0.0224638366156294,-0.0360206810312184,0.0158778038697552,1
845,0.194104954600334,1.62128460407257,9.60238265991211,-0.0468934731063332,-0.041462105865928,0.00542924191301973,1
846,0.423354595899582,1.33476901054382,9.41928672790527,-0.0754586554718208,-0.00408626439090106,-0.0060019942367387,1
847,0.273977249860764,1.21991884708405,9.64896583557129,-0.0717720415748242,0.0536320571289931,-0.0076423558266054,1
848,0.0259281694889069,1.25090062618256,10.0614824295044,-0.0493626104274326,0.0265831788196558,-0.00170294522529775,1
849,0.18353496491909,1.09800040721893,9.86656188964844,-0.0160520297408034,-0.00936295762787834,0.00349831332361723,1
850,0.183188170194626,1.07211720943451,9.85797023773193,0.0157164267106695,-0.0227860312538532,0.00951550682406944,1
851,0.1732107847929,1.03176188468933,9.83237171173096,0.06756920302884,-0.040605828835251,0.0199647408128613,1
852,0.207017198204994,1.11996173858643,9.83046817779541,0.106877098694949,-0.0234559015723868,0.0182515126388565,1
853,0.124138340353966,1.15736258029938,9.88405323028564,0.134010465789869,-0.059646906319478,0.0185114579671943,1
854,0.347892045974731,1.28202974796295,9.55085945129395,0.157166884494703,-0.0857760411404104,0.0139866640513656,1
855,0.484991073608398,1.48711943626404,9.4010181427002,0.125603673499194,-0.0171016491457282,-0.00321635166335374,0
856,0.337126046419144,1.59969353675842,9.50782299041748,0.0790606890370723,0.017131936361344,-0.0183260541016489,1
857,0.213560298085213,1.51235795021057,9.70877838134766,0.0308880414025252,0.0303330594372987,-0.0267386346065053,1
858,0.178740635514259,1.50132870674133,9.81100463867188,0.0118065140383507,0.00673969818106906,-0.0299934273357187,1
859,0.205776140093803,1.3226603269577,9.81767082214355,0.0168605872939947,-0.0197466965792056,-0.0250654121055006,1
860,0.455800861120224,1.47432887554169,9.29970359802246,0.027746788801317,0.0143757955791128,-0.0344583209329666,0
861,0.326272696256638,1.45553016662598,9.59214496612549,0.00104592895025015,0.0435572022119257,-0.0358338228300465,1
862,0.397035032510757,1.47488570213318,9.36757183074951,0.0117238145641254,0.0739804512640155,-0.0427618325076167,0
863,0.0592748038470745,1.62916088104248,9.8578929901123,-0.00971722567218343,0.0788360430767457,-0.037652770176949,1
864,0.0679801031947136,1.44246208667755,9.89797687530518,-0.0187225613372589,0.0175760538432229,-0.0226964013190098,1
865,0.267598539590836,1.0331324338913,9.71500778198242,0.0277604208571469,-0.00427848532465864,-0.0183220281510948,1
866,0.437362819910049,1.23713886737823,9.36800765991211,0.0844169384899805,0.0484206212215472,-0.0272033166854267,0
867,0.391621977090836,1.60325288772583,9.30919170379639,0.0511895056457133,0.105306249770722,-0.0454951720536087,0
868,0.34406253695488,1.5495343208313,9.4881067276001,0.0228339743952584,0.137077736608233,-0.0482019174394028,1
869,0.102826982736588,1.49230122566223,9.84902095794678,0.0139647574708051,0.136911214138697,-0.0512168904318599,1
870,0.175449520349503,1.4442902803421,9.71080684661865,0.0265062966879365,0.143951663309728,-0.0561585439596917,1
871,0.129349738359451,1.54617667198181,9.69594955444336,0.0111163100687755,0.154678543285431,-0.0688829279110085,1
872,0.308610171079636,1.50784695148468,9.45974636077881,-0.0121899551398625,0.179025361708017,-0.0842881247170048,1
873,0.344808876514435,1.66147232055664,9.44428730010986,-0.0528970746024017,0.255303122307362,-0.106322978095887,1
874,0.963968098163605,1.59193539619446,9.06428718566895,-0.075304391865678,0.446804594774074,-0.145526090856669,0
875,0.868845283985138,1.32670998573303,9.13099479675293,-0.0884350243965296,0.711210085436947,-0.173754466568046,0
876,-0.0202441550791264,1.3369220495224,9.60371112823486,-0.1490084236533,1.02427638948456,-0.214997444210531,0
877,-3.40701174736023,1.19938266277313,11.3637676239014,0.103885661388625,0.235370809641962,-0.0319748940881433,0
878,-0.547866523265839,1.51893794536591,9.88243198394775,0.110950852990659,-0.0126939739806195,0.0158351142297191,1
879,-0.22089184820652,1.55864632129669,9.694580078125,0.111786120177049,-0.0305180201361939,0.0308563060930666,1
880,-0.100619427859783,1.66804254055023,9.56772708892822,0.0798715966218662,0.0243000008828604,0.00956065780751929,1
881,-0.192027553915977,1.66715633869171,9.66861915588379,0.034850250860453,0.0766085002395978,-0.0153535522867947,1
882,-0.0443403795361519,1.47048532962799,9.65726280212402,0.00362862226388859,0.156212457494289,-0.0596075747591289,1
883,0.156710401177406,0.936940968036652,9.53357219696045,-0.0119713657904212,0.2373570118277,-0.136237084843014,1
884,0.556328654289246,-0.975599825382233,9.74882698059082,-0.0061569106294378,0.359770559558494,-0.431641088159381,0
885,1.79922223091125,-2.05480027198792,9.50119113922119,0.150899451119581,0.625876278840302,-1.03846477966612,0
886,2.81796550750732,-0.190172672271729,8.37398147583008,0.352087206655561,1.28168702096531,-1.81613338431572,0
887,0.796731173992157,0.677091777324677,10.8124713897705,0.566337517667027,1.72953817146876,-2.42912142821864,0
888,7.1865348815918,3.27243590354919,8.16433811187744,0.748762121545664,3.08078309852336,-2.88242713210873,0
889,4.7288932800293,2.6686429977417,13.6804428100586,0.136635635222523,3.93384685889754,-2.75133196218515,0
890,7.30140399932861,-2.77041959762573,18.2776126861572,-0.676375072851357,4.19869796298981,-3.14677809454829,0
891,3.3552827835083,0.21998342871666,19.6129627227783,-0.972206996220629,2.8968625304814,-3.49615473584636,0
892,-1.08178269863129,5.96281957626343,19.8419990539551,-1.32792042959547,0.591171095357852,-3.41268088095503,0
893,5.59889316558838,6.49391841888428,7.07162761688232,-1.39814838701502,-0.402630042693143,-2.88935934042621,0
894,4.53245830535889,7.37054061889648,3.69003367424011,-1.2795329231176,-0.267633940983836,-2.30023694831593,0
895,4.69583511352539,8.42694568634033,6.70809888839722,-0.910397091269734,-0.159671487631382,-1.60842785826215,0
896,4.17726135253906,9.26250743865967,11.8173561096191,-0.275332806800119,-0.645809440388299,-0.788191419906778,0
897,3.7401134967804,9.03915882110596,13.188720703125,0.335326435887579,-1.40685053219296,0.10383670083646,0
898,2.80133008956909,6.81700420379639,11.2248430252075,0.64631797099845,-2.05620603815173,0.850498337296108,0
899,1.55096817016602,3.29682660102844,9.73218822479248,0.759914641242589,-2.33538641364723,1.23840639219378,0
900,0.723996698856354,1.4419652223587,9.13880729675293,0.853376548644211,-2.45532613439669,1.34212040452777,0
901,0.0476656556129456,0.549701750278473,9.85836029052734,0.94122371351962,-2.33499279843811,1.34251508500132,0
902,-0.361492693424225,0.647307217121124,10.5314350128174,0.999744414787184,-2.33397626985003,1.33087467419269,0
903,-0.194836065173149,0.857434630393982,11.8229856491089,0.954586124289092,-2.19910047644297,1.3398581823398,0
904,-1.47885048389435,1.69010150432587,14.5536203384399,1.07183931470991,-2.12457204649516,1.33528193948067,0
905,-3.0028076171875,3.41880893707275,15.1813259124756,1.07500255087368,-2.31922155846267,1.4015698832255,0
906,-3.90965890884399,4.48188591003418,12.2338056564331,0.940891351015578,-2.29602515905197,1.57105984658476,0
907,-4.6482458114624,4.73149061203003,10.1140689849854,0.888545321893416,-2.02971291162762,1.77409605229909,0
908,-4.2640118598938,4.57738161087036,8.05212593078613,0.884809639253335,-1.62228521752022,1.90646115058848,0
909,-4.04108667373657,3.58260369300842,8.89450073242188,0.774419881014842,-1.14004267048976,2.07317849693686,0
910,-3.90360379219055,2.02355241775513,12.2215805053711,0.585443567959473,-0.756404794662946,2.04957063913774,0
911,-5.83785057067871,1.34375071525574,16.1952610015869,0.569417596625758,-0.779578690362434,1.98853404958838,0
912,-5.20353221893311,0.44709312915802,15.5707015991211,0.297118895966053,-1.08839212588627,1.81875886167638,0
913,-5.25358438491821,-1.01478862762451,12.1391048431396,0.0767157007958519,-1.41086578016848,1.63504295756419,0
914,-5.23717641830444,-1.87767136096954,9.05572986602783,0.061733880024151,-1.39305655616884,1.31516162428706,0
915,-5.80385255813599,-2.01854538917542,6.48269748687744,0.24118127786354,-1.22113872200182,0.994812240448358,0
916,-6.16527128219604,-2.00663495063782,4.95026445388794,0.337835067055406,-0.828119528340063,0.729708468947665,0
917,-6.88456058502197,-2.53959512710571,5.19035053253174,0.201841461715053,-0.43756811961292,0.494890231942381,0
918,-8.54138851165771,-3.33182525634766,9.3970832824707,0.121853551532578,-0.316162528420451,0.196276337208899,0
919,-8.35204029083252,-2.36157536506653,7.73535537719727,0.0871322143136413,-0.510418724784469,-0.0177320089727769,0
920,-8.44333267211914,-1.12817084789276,6.49570226669312,-0.135282849257303,-0.376014610495973,-0.12624394735952,0
921,-9.06862926483154,-1.1968092918396,-5.08679819107056,-0.200528989350835,0.685924635888163,-0.149345779584386,0
922,-5.94183969497681,-1.8771835565567,0.779203593730927,-0.416510937637341,1.7573731317081,-0.0792754563342304,0
923,10.2380275726318,-0.721393287181854,7.94636535644531,0.200377838314216,2.40272657233875,-0.205440873731106,0
924,3.11603116989136,0.595973193645477,5.38007020950317,-0.370134151071996,3.7674677340076,-0.749720260326847,0
925,-5.63008451461792,11.7117261886597,22.610876083374,-0.349274076306596,4.0503244702299,-0.578712161988189,0
926,-13.529354095459,1.81739044189453,30.8717460632324,-0.391176752240608,0.214668061117958,-0.00438287603790324,0
927,5.02753782272339,-2.29799842834473,9.987135887146,-0.0782138287775623,0.633389522328606,-0.127807123050855,0
928,-1.75579500198364,2.56926774978638,13.4330739974976,-0.0732730823889769,0.442771836514394,-0.0479463247149716,0
929,-0.172747015953064,1.9728125333786,11.6872777938843,-0.156074755421176,0.408700751687492,-0.0244530452605667,0
930,-0.417741626501083,1.02849745750427,11.3240718841553,-0.137512597524729,0.129251438533789,0.0101860470940648,0
931,-0.0170728508383036,1.46179783344269,10.4191598892212,-0.0365944341209408,-0.0185287768366582,0.0158847312094814,0
932,0.543886423110962,1.39191448688507,9.42754077911377,-0.0301907883784396,-0.00706144497130481,0.0100778644971587,1
933,0.332481354475021,1.74339389801025,9.64664554595947,-0.0782957126587038,0.0809102544141323,-0.00861642624080194,1
934,0.395211398601532,1.56140875816345,9.27768135070801,-0.138663915353484,0.072928169738298,-0.00992800238889559,0
935,0.139479205012321,1.37894201278687,9.94460773468018,-0.1518536450934,0.076454095153022,-0.0111457015884153,1
936,0.1315987855196,1.27742052078247,10.0983457565308,-0.122236805380575,0.0235959339114545,-0.00141662536952967,1
937,0.175264433026314,1.23826622962952,9.96943187713623,-0.0703538250705729,0.013293322545131,0.00251195075651428,1
938,0.229325294494629,1.08367478847504,9.88219261169434,-0.0259485163229709,-0.000974292972800339,0.00684541995471005,1
939,0.177545756101608,1.10289657115936,9.89803028106689,0.0297787432623447,-0.0303445672060402,0.0125532706497927,1
940,0.290435373783112,1.23110377788544,9.71817493438721,0.0684105081007637,-0.0489931467604545,0.0128255091713342,1
941,0.332613110542297,1.21442139148712,9.6856050491333,0.0917850480212539,-0.0301302243501809,0.00643102740775586,1
942,0.525708615779877,1.31131267547607,9.3067455291748,0.090132847848104,0.0213965644058072,-0.0113343449397554,0
943,0.580142855644226,1.58375370502472,8.98942470550537,0.0616829970025736,0.0595991774793167,-0.0320341036493163,0
944,0.419768393039703,1.7774064540863,9.33229541778564,-0.0354918563013235,0.165840300822387,-0.0515108160312314,0
945,0.0383641943335533,1.34420478343964,10.0618152618408,-0.0326583756565607,0.108397206078031,-0.0362151375638754,1
946,0.0741221234202385,1.25046694278717,9.98130989074707,0.0158579123450664,0.0654988075019528,-0.0188441575275616,1
947,0.211584940552711,1.39606094360352,9.79787540435791,0.0674547703257507,0.0456702957012275,-0.00615219548192187,1
948,0.142776653170586,1.38814294338226,9.75971221923828,0.0729567654305027,0.033137478336666,-0.00903506528133804,1
949,0.235311046242714,1.43724143505096,9.69842910766602,0.0793121247334894,0.0373817685688983,-0.010844178697856,1
950,0.326419413089752,1.37918269634247,9.53382587432861,0.0857864191462833,0.0352219615696008,-0.0130111398216911,1
951,0.221998915076256,1.60065650939941,9.67058563232422,0.0799180771052665,0.0656758328130374,-0.0175383950809335,1
952,0.181565687060356,1.63391721248627,9.67922782897949,0.039067724308865,0.0604306454999639,-0.0242983197624223,1
953,0.192730233073235,1.47412991523743,9.72228336334229,0.0207094834087289,0.0438810717288037,-0.0299292784429614,1
954,0.25816798210144,1.56040930747986,9.56381988525391,0.006515738816961,0.0931833407516,-0.0458637493872865,1
955,0.0984520465135574,1.57796609401703,9.61195087432861,-0.0139876658576662,0.0857732198541306,-0.0514348077492448,1
956,0.265994369983673,1.48011457920074,9.51220321655273,-0.0250721199424962,0.101871520978577,-0.0539296612196203,1
957,0.233510255813599,1.27711272239685,9.60183048248291,0.00343640080998236,0.125938740776218,-0.0544786177828805,1
958,0.117000967264175,1.53832995891571,9.69005584716797,0.032692018871269,0.138810830299494,-0.0565490133097677,1
959,0.200533881783485,1.56555545330048,9.57714653015137,0.0272541747398688,0.162259847184344,-0.0639768109389725,1
960,0.209630221128464,1.61581182479858,9.51496124267578,-0.00371009366715035,0.202638196289421,-0.0814439186070706,1
961,0.409376382827759,1.6901627779007,9.21026229858398,-0.0437071048917835,0.291126250881157,-0.0989271550445204,0
962,0.0788147374987602,1.43896377086639,9.57674789428711,-0.0552808867388884,0.36959306331752,-0.0966335408452033,0
963,0.181769251823425,1.52372252941132,9.52088356018066,-0.0283584877753838,0.401821873170845,-0.0963215348787437,0
964,-0.237358823418617,1.47799360752106,9.83703708648682,-0.0181408062806987,0.463644960769135,-0.0934604010511307,0
965,-0.413266986608505,1.48803222179413,9.86357688903809,0.00409599533185286,0.42378965650215,-0.0836423081526605,0
966,-0.782755017280579,1.56011128425598,9.99711799621582,0.0250740465730973,0.283846899515588,-0.0588309096002885,1
967,-0.538461565971375,1.54468905925751,9.89054870605469,0.0339640423958371,0.21275795876037,-0.0455193319181228,1
968,-0.328009873628616,1.73026430606842,9.63858318328857,0.0211330466965384,0.167792031716765,-0.0437736880802247,1
969,-0.31499120593071,1.52420902252197,9.77819633483887,-0.0133658593550248,0.19424908905286,-0.0584093353609181,1
970,-0.273523449897766,1.40368342399597,9.78006362915039,-0.0296733777905292,0.237273371924715,-0.0832543937727553,1
971,0.0962507277727127,0.31025567650795,9.76546382904053,-0.0338034745880514,0.26809466785242,-0.213303840204809,0
972,0.988140225410461,-1.19296407699585,9.57740688323975,0.0676170317375422,0.473705384682046,-0.581538774590172,0
973,1.99023675918579,-1.28263568878174,9.0136547088623,0.237928393039576,0.896995332295156,-1.23583830595462,0
974,1.23329448699951,0.81395435333252,9.01700210571289,0.416556610850035,1.51623121869443,-1.99616853348531,0
975,3.95907545089722,2.12216758728027,9.54796028137207,0.635190551594799,2.17669037534412,-2.49314195661138,0
976,3.25983357429504,4.78152799606323,10.3963565826416,0.290908903646692,3.58902875043735,-2.41011231698987,0
977,6.73087739944458,1.24172115325928,14.9955587387085,-0.191573011631494,4.08407684125335,-2.40641718097739,0
978,4.49933910369873,-0.781300067901611,18.1773109436035,-0.5634460570925,3.80677599169717,-2.68413774472136,0
979,1.12075567245483,3.1855001449585,19.3776664733887,-0.804818666435606,2.20236284877832,-2.77998970604327,0
980,1.66683268547058,5.6497597694397,15.0518474578857,-1.11967654552754,0.00630374079121769,-2.54228766505159,0
981,5.32373142242432,5.1243314743042,4.7164831161499,-1.25227853199589,-0.184035133903106,-2.20768650779738,0
982,5.07330465316772,5.16867589950562,3.88637018203735,-1.17580559497816,-0.0189701541754468,-1.85037204855422,0
983,4.32408094406128,7.04619979858398,8.720383644104,-0.849102241673661,-0.118375737787422,-1.34279005638387,0
984,4.22931909561157,8.15496921539307,13.0352830886841,-0.406419454608217,-0.712201580310784,-0.650854532757345,0
985,2.80923175811768,8.08395767211914,14.2347631454468,0.200418251783758,-1.61330210884727,0.113337403189642,0
986,2.12542462348938,7.14039134979248,10.268816947937,0.509011943228149,-2.11596084826844,0.795692279696013,0
987,0.89885413646698,5.01499462127686,9.00947284698486,0.614055438867821,-2.27700033517277,1.34250203551198,0
988,0.292334854602814,2.25736522674561,10.0963382720947,0.775834885081028,-2.26547497292323,1.63876006465566,0
989,-0.361559450626373,0.660935342311859,10.8953294754028,0.911680002545853,-2.36759175439345,1.7318882779727,0
990,-0.152759924530983,0.257618188858032,11.5908908843994,0.839004733242572,-2.24117389429237,1.68660175626812,0
991,-0.960703074932098,0.710923552513123,14.1026639938354,0.76693759677421,-2.28970840726241,1.63526186940579,0
992,-1.57516872882843,1.50007212162018,13.9287118911743,0.677307378969966,-2.42379430709015,1.60578054298056,0
993,-2.01535630226135,2.50367045402527,11.7918405532837,0.567211167662627,-2.37300622720569,1.57582783704238,0
994,-2.96778154373169,3.87261986732483,11.2663803100586,0.558894048999283,-2.13689715602004,1.59758666209666,0
995,-3.61624932289124,4.76864099502563,9.94985198974609,0.696908843804195,-1.84341746968358,1.71405468604909,0
996,-3.79113912582397,5.19621276855469,13.1219844818115,0.706609274916754,-1.49010454313631,1.8583716518366,0
997,-5.25182294845581,4.2873911857605,18.8231601715088,0.734665144368521,-1.7384162184367,2.00477786749927,0
998,-4.7844090461731,1.76508450508118,16.0148525238037,0.716433409861947,-2.17868308562977,2.07762224753177,0
999,-5.06957912445068,-0.346575319766998,13.6363315582275,0.452331452984315,-2.26905772353772,1.89537467728659,0
1000,-4.55135822296143,-1.07228636741638,10.1766586303711,0.214809208655733,-2.16489669961475,1.56235357350713,0
1001,-5.03710985183716,-1.08004808425903,7.82654666900635,0.200331632469303,-1.96883597858561,1.25636155742115,0
1002,-4.59022951126099,-1.79338371753693,5.35290241241455,0.278443428887602,-1.49427625182587,0.942587318576767,0
1003,-5.17888832092285,-2.64538359642029,5.81680965423584,0.42292409585836,-1.0003354368121,0.59606059254021,0
1004,-5.8998646736145,-2.40806818008423,9.43134498596191,0.406815699688907,-0.70041789143551,0.202747419183628,0
1005,-6.97547388076782,-0.698039710521698,9.5836763381958,0.464254558342654,-0.877635749066934,0.0651425889002087,0
1006,-6.37767219543457,-0.651234745979309,4.58796167373657,0.14888668390197,-0.748998809987545,0.074488773814706,0
1007,-5.68957090377808,-1.69771063327789,2.80806112289429,-0.0643051870237577,-0.270483373547409,-0.0202342007003123,0
1008,-4.95753908157349,-1.37669539451599,4.18333005905151,0.0840663582996068,0.235879257028329,-0.21684988913052,0
1009,-4.44902944564819,-0.170654147863388,5.65046405792236,0.139520529440486,0.554469839348875,-0.336199220355825,0
1010,-4.06383085250854,0.510207891464233,7.50963449478149,-0.0242269990600732,0.774568751719777,-0.364076191961366,0
1011,-3.82923626899719,2.56148147583008,1.68721556663513,-0.0327706819919672,1.19500086116712,-0.199641141377673,0
1012,-0.452242612838745,0.482013076543808,8.00432395935059,-0.707559224477585,1.84784058078004,-0.096410209820665,0
1013,6.61656999588013,0.231781736016273,7.19355726242065,0.0871570815803199,1.96323681555177,-0.0221690059576062,0
1014,5.58439826965332,-2.14564847946167,2.48598527908325,-0.572591618591942,3.14054416706863,-0.432509212095719,0
1015,-1.89806115627289,0.891356468200684,12.7209978103638,-0.483558481504094,3.70708028997395,-0.729439689414649,0
1016,-4.76153898239136,8.8913402557373,21.9047508239746,-0.361711504650457,3.01797004736886,-0.524073717089201,0
1017,-7.77674198150635,4.92505836486816,23.3690357208252,-0.698300145736679,1.11272862455963,-0.0497648143310618,0
1018,0.862520396709442,-3.96128249168396,15.2375755310059,-0.296510030761833,0.58850001136353,-0.104747210646023,0
1019,-0.828711867332458,2.74775695800781,12.8172340393066,-0.149305565851926,0.50749390811729,-0.0843645740850469,0
1020,-0.933876693248749,0.538585782051086,12.8620338439941,-0.123603722744329,0.29656352701023,-0.0654156211685906,0
1021,-0.508869767189026,1.464599609375,10.877010345459,0.0124810750574137,0.030142622613412,-0.00911105899916237,0
1022,-0.0880118235945702,1.54777550697327,10.2434816360474,-0.0161778703440934,-0.0347307893602115,0.0063373751633989,0
1023,-0.00165099976584315,1.12880563735962,10.2067518234253,-0.0118645147740602,-0.0483085312679792,0.00920951689690044,1
1024,0.199798256158829,1.24873244762421,9.73236274719238,0.03896355725954,-0.0582772051201474,0.01401996188737,1
1025,0.166643545031548,1.25242745876312,9.72727108001709,0.0633204457599981,-0.0857453898207393,0.0187030058285982,1
1026,0.251144111156464,1.39442574977875,9.64683151245117,0.0793827817261606,-0.0883790730465027,0.0223118554217646,1
1027,0.276045173406601,1.49127435684204,9.63101291656494,0.0466769955604126,-0.0613140826125704,0.0202948666777064,1
1028,0.407777190208435,1.47954249382019,9.35984706878662,0.0110382992144848,-0.0166590900292058,0.0097034802239478,0
1029,0.21639883518219,1.29654169082642,9.71481037139893,-0.00672505755700608,-0.0263220038599085,0.0102010180125207,1
1030,0.324656844139099,1.27796018123627,9.56834697723389,0.00476898446169429,-0.0169411624811319,0.0103013754931301,1
1031,0.159821674227715,1.21066892147064,9.93339157104492,0.0276551469314939,-0.0168861806881893,0.0088881045622469,1
1032,0.264911502599716,1.33323836326599,9.70830726623535,0.0586289171539844,-0.0335680802760128,0.00908412674234165,1
1033,0.270239353179932,1.45258331298828,9.6732292175293,0.0507804732306016,-0.0289158728273752,0.00537045835359139,1
1034,0.245049089193344,1.3565354347229,9.7378625869751,0.0501258016556328,-0.0336496541485587,0.00409442188218538,1
1035,0.344355434179306,1.4481897354126,9.58842945098877,0.0421850542333436,-0.0241537038734472,-0.00180509071689287,1
1036,0.284585624933243,1.30364394187927,9.73797988891602,0.0577663692111782,-0.0207453591014447,-0.00646287819021483,1
1037,0.225555762648582,1.53788912296295,9.6805419921875,0.0619154410314671,0.00575132419913499,-0.0202277030033714,1
1038,0.392283707857132,1.43102216720581,9.582200050354,0.0398555997114189,0.0138574684892804,-0.0180929255571315,1
1039,0.286794990301132,1.49349880218506,9.63058280944824,0.0367121167127978,-0.00329614584729226,-0.0136937465000786,1
1040,0.322849780321121,1.45573258399963,9.57141208648682,0.0368994160000253,-0.01771653351013,-0.0192406668437662,1
1041,0.348592936992645,1.41055774688721,9.7626485824585,0.0407342348116849,0.0198912021966669,-0.0262647854277692,1
1042,0.333007335662842,1.63359093666077,9.44360637664795,0.0259135332053391,0.000281291058615953,-0.0249706431019912,1
1043,0.260682314634323,1.65371942520142,9.62847805023193,0.000855719496342276,0.046693319905657,-0.0283975488584347,1
1044,0.393801927566528,1.46401727199554,9.4486198425293,-0.011314897622014,0.0754484938477865,-0.0285660791017609,1
1045,0.224546626210213,1.41954410076141,9.73788356781006,-0.00787480921817458,0.0939555825663173,-0.0301557012310778,1
1046,0.196842506527901,1.40673899650574,9.78224277496338,0.0264647222466069,0.0600732492816752,-0.0240403863690643,1
1047,0.257615387439728,1.6628406047821,9.60099983215332,0.00301798413299431,0.0604865261097743,-0.0290229381449802,1
1048,0.243676021695137,1.51503443717957,9.60318183898926,-0.0215296683648515,0.056238438792394,-0.0355606948543129,1
